workerid,proliferate.condition,accuracy,coding,failed_audio,failed_images,failed_video,internal_node_id,lex_code,question_order,response,result,rt,sib_code,slider_start,spk,stimulus,success,time_elapsed,timeout,trial_index,trial_type,triplet_id,error
562,list1,,,[],[],[],0.0-0.0,,,,,,,,,,True,18321,False,0,preload,,
562,list1,,,,,,0.0-1.0,,,0,,8273,,,,"<p><font size='3'>DESCRIPTION: You are invited to participate in a research study. Its general purpose is to understand how people perceive speech. We are interested in how people make use of varying properties of language to infer social information about a speaker. In this study, you will hear spoken sentences, and you will be asked to make simple decisions about the sentences you hear. Following this, you will be asked to complete a short questionnaire, where you will indicate on a sliding scale how much you agree or disagree with a series of statements. You will also be asked to complete an optional demographic survey. <br><br>TIME INVOLVEMENT: Your participation will take approximately 10 to 20 minutes. <br><br>RISKS AND BENEFITS: The foreseeable risks associated with this study are minimal. This judgment is based on a large body of experience with the same or similar procedures with people of similar ages, sex, origins, etc. Study data will be stored securely, in compliance with Stanford University standards, minimizing the risk of confidentiality breach. There are no known benefits to you for participating in this study, and we cannot and do not guarantee or promise that you will receive any benefits from this study. You will help us to understand how people perceive spoken language. <br><br>PAYMENT: You will be paid at the posted rate. <br><br>PARTICIPANT RIGHTS: If you have read this form and have decided to participate in this project, please understand your participation is voluntary and you have the right to withdraw your consent or discontinue participation at any time without penalty or loss of benefits to which you are otherwise entitled. The alternative is not to participate. You have the right to refuse to answer particular questions. The results of this research study may be presented at scientific or professional meetings or published in scientific journals. Your individual privacy will be maintained in all published and written data resulting from the study. In accordance with scientific norms, the data from this study may be used or shared with other researchers for future research (after removing personally identifying information) without additional consent from you. <br><br>CONTACT INFORMATION: If you have any questions, concerns or complaints about this research study, its procedures, risks and benefits, you should contact the Protocol Director Grace Brown at (616) 498-8188. If you are not satisfied with how this study is being conducted, or if you have any concerns, complaints, or general questions about the research or your rights as a participant, please contact the Stanford Institutional Review Board (IRB) to speak to someone independent of the research team at (650) 723-2480 or toll free at 1-866-680-2906. You can also write to the Stanford IRB, Stanford University, 3000 El Camino Real, Five Palo Alto Square, 4th Floor, Palo Alto, CA 94306 USA. <br><br>WAIVER OF DOCUMENTATION: If you agree to participate in this research, please click the 'Continue' button. </font></p>",,26596,,1,html-button-response,,
562,list1,,,,,,0.0-2.0,,,0,,7365,,,,"<p><font size='3'>This study requires you to listen to audio clips. To ensure you can adequately hear the audio presented in this study, the next page will have an audio attention check. Please wear headphones, and be prepared to adjust the volume on your device if necessary. <br><br> When you are ready to begin the audio attention check, click 'Start'. </font></p>",,33962,,2,html-button-response,,
562,list1,,,,,,0.0-3.0,,,2,correct,2125,,,,audio/gift.wav,,36270,,3,audio-button-response,,
562,list1,,,,,,0.0-4.0,,,0,,1239,,,,<p>Correct! You are ready to begin the study.</p>,,37511,,4,html-button-response,,
562,list1,,,,,,0.0-5.0,,,0,,9147,,,,"<p><font size='3'>In this experiment, you will listen to a series of sentences, produced by different speakers. While listening to each sentence, you will be prompted to rate the social characteristics of its speaker. To rate the social characteristics of a speaker, click along the scale that appears on your screen. You may click along this scale after the speaker stops talking. Try to respond as quickly as you can. If you do not respond within ten seconds, the experiment will advance automatically. There will be a progress bar at the top of the screen. When you're ready to hear the first speaker, click ‘Start’. </font></p>",,46659,,5,html-button-response,,
562,list1,,,,,,0.0-6.0-0.0,neutral,,1418,,5486,control,5000,246,audio/246_CN19.wav,,52147,,6,audio-slider-response,19,
562,list1,,,,,,0.0-6.0-1.0,,,,,,,,,,,52650,,7,html-keyboard-response,,
562,list1,,,,,,0.0-6.0-0.1,neutral,,4216,,5492,control,5000,340,audio/340_CN1.wav,,58145,,8,audio-slider-response,1,
562,list1,,,,,,0.0-6.0-1.1,,,,,,,,,,,58648,,9,html-keyboard-response,,
562,list1,,,,,,0.0-6.0-0.2,neutral,,6486,,6664,control,5000,723,audio/723_CN17.wav,,65312,,10,audio-slider-response,17,
562,list1,,,,,,0.0-6.0-1.2,,,,,,,,,,,65813,,11,html-keyboard-response,,
562,list1,,,,,,0.0-6.0-0.3,neutral,,4674,,4667,control,5000,723,audio/723_CN20.wav,,70482,,12,audio-slider-response,20,
562,list1,,,,,,0.0-6.0-1.3,,,,,,,,,,,70983,,13,html-keyboard-response,,
562,list1,,,,,,0.0-6.0-0.4,neutral,,1144,,5074,control,5000,246,audio/246_CN4.wav,,76058,,14,audio-slider-response,4,
562,list1,,,,,,0.0-6.0-1.4,,,,,,,,,,,76559,,15,html-keyboard-response,,
562,list1,,,,,,0.0-6.0-0.5,neutral,,6478,,4551,mid,5000,723,audio/723_SN16_mid.wav,,81114,,16,audio-slider-response,16,
562,list1,,,,,,0.0-6.0-1.5,,,,,,,,,,,81615,,17,html-keyboard-response,,
562,list1,,,,,,0.0-6.0-0.6,neutral,,5389,,3657,mid,5000,340,audio/340_SN4_mid.wav,,85277,,18,audio-slider-response,4,
562,list1,,,,,,0.0-6.0-1.6,,,,,,,,,,,85779,,19,html-keyboard-response,,
562,list1,,,,,,0.0-6.0-0.7,neutral,,4316,,3361,control,5000,723,audio/723_CN1.wav,,89140,,20,audio-slider-response,1,
562,list1,,,,,,0.0-6.0-1.7,,,,,,,,,,,89642,,21,html-keyboard-response,,
562,list1,,,,,,0.0-6.0-0.8,neutral,,5362,,2879,control,5000,723,audio/723_CN3.wav,,92522,,22,audio-slider-response,3,
562,list1,,,,,,0.0-6.0-1.8,,,,,,,,,,,93024,,23,html-keyboard-response,,
562,list1,,,,,,0.0-6.0-0.9,neutral,,4824,,4760,low,5000,723,audio/723_SN7_low.wav,,97786,,24,audio-slider-response,7,
562,list1,,,,,,0.0-6.0-1.9,,,,,,,,,,,98288,,25,html-keyboard-response,,
562,list1,,,,,,0.0-6.0-0.10,neutral,,5380,,4052,control,5000,723,audio/723_CN18.wav,,102343,,26,audio-slider-response,18,
562,list1,,,,,,0.0-6.0-1.10,,,,,,,,,,,102844,,27,html-keyboard-response,,
562,list1,,,,,,0.0-6.0-0.11,neutral,,2286,,5410,low,5000,246,audio/246_SN13_low.wav,,108257,,28,audio-slider-response,13,
562,list1,,,,,,0.0-6.0-1.11,,,,,,,,,,,108758,,29,html-keyboard-response,,
562,list1,,,,,,0.0-6.0-0.12,neutral,,1391,,3988,low,5000,246,audio/246_SN1_low.wav,,112748,,30,audio-slider-response,1,
562,list1,,,,,,0.0-6.0-1.12,,,,,,,,,,,113250,,31,html-keyboard-response,,
562,list1,,,,,,0.0-6.0-0.13,neutral,,7071,,3605,control,5000,340,audio/340_CN8.wav,,116855,,32,audio-slider-response,8,
562,list1,,,,,,0.0-6.0-1.13,,,,,,,,,,,117356,,33,html-keyboard-response,,
562,list1,,,,,,0.0-6.0-0.14,neutral,,2596,,5915,high,5000,246,audio/246_SN9_high.wav,,123271,,34,audio-slider-response,9,
562,list1,,,,,,0.0-6.0-1.14,,,,,,,,,,,123772,,35,html-keyboard-response,,
562,list1,,,,,,0.0-6.0-0.15,neutral,,7383,,3895,high,5000,340,audio/340_SN20_high.wav,,127669,,36,audio-slider-response,20,
562,list1,,,,,,0.0-6.0-1.15,,,,,,,,,,,128170,,37,html-keyboard-response,,
562,list1,,,,,,0.0-6.0-0.16,neutral,,2270,,3872,low,5000,246,audio/246_SN8_low.wav,,132044,,38,audio-slider-response,8,
562,list1,,,,,,0.0-6.0-1.16,,,,,,,,,,,132546,,39,html-keyboard-response,,
562,list1,,,,,,0.0-6.0-0.17,neutral,,1282,,3251,low,5000,246,audio/246_SN3_low.wav,,135796,,40,audio-slider-response,3,
562,list1,,,,,,0.0-6.0-1.17,,,,,,,,,,,136297,,41,html-keyboard-response,,
562,list1,,,,,,0.0-6.0-0.18,neutral,,8333,,3622,low,5000,340,audio/340_SN13_low.wav,,139919,,42,audio-slider-response,13,
562,list1,,,,,,0.0-6.0-1.18,,,,,,,,,,,140420,,43,html-keyboard-response,,
562,list1,,,,,,0.0-6.0-0.19,neutral,,8212,,3181,high,5000,723,audio/723_SN15_high.wav,,143598,,44,audio-slider-response,15,
562,list1,,,,,,0.0-6.0-1.19,,,,,,,,,,,144099,,45,html-keyboard-response,,
562,list1,,,,,,0.0-6.0-0.20,neutral,,6843,,4412,control,5000,340,audio/340_CN20.wav,,148510,,46,audio-slider-response,20,
562,list1,,,,,,0.0-6.0-1.20,,,,,,,,,,,149012,,47,html-keyboard-response,,
562,list1,,,,,,0.0-6.0-0.21,neutral,,7199,,3158,low,5000,340,audio/340_SN14_low.wav,,152170,,48,audio-slider-response,14,
562,list1,,,,,,0.0-6.0-1.21,,,,,,,,,,,152672,,49,html-keyboard-response,,
562,list1,,,,,,0.0-6.0-0.22,neutral,,7251,,4371,low,5000,340,audio/340_SN1_low.wav,,157046,,50,audio-slider-response,1,
562,list1,,,,,,0.0-6.0-1.22,,,,,,,,,,,157548,,51,html-keyboard-response,,
562,list1,,,,,,0.0-6.0-0.23,neutral,,1574,,3500,mid,5000,246,audio/246_SN4_mid.wav,,161048,,52,audio-slider-response,4,
562,list1,,,,,,0.0-6.0-1.23,,,,,,,,,,,161550,,53,html-keyboard-response,,
562,list1,,,,,,0.0-6.0-0.24,neutral,,2322,,4127,control,5000,246,audio/246_CN10.wav,,165677,,54,audio-slider-response,10,
562,list1,,,,,,0.0-6.0-1.24,,,,,,,,,,,166178,,55,html-keyboard-response,,
562,list1,,,,,,0.0-6.0-0.25,neutral,,7275,,3245,control,5000,340,audio/340_CN14.wav,,169425,,56,audio-slider-response,14,
562,list1,,,,,,0.0-6.0-1.25,,,,,,,,,,,169926,,57,html-keyboard-response,,
562,list1,,,,,,0.0-6.0-0.26,neutral,,6065,,4093,mid,5000,340,audio/340_SN2_mid.wav,,174021,,58,audio-slider-response,2,
562,list1,,,,,,0.0-6.0-1.26,,,,,,,,,,,174522,,59,html-keyboard-response,,
562,list1,,,,,,0.0-6.0-0.27,neutral,,7099,,3437,low,5000,723,audio/723_SN1_low.wav,,177961,,60,audio-slider-response,1,
562,list1,,,,,,0.0-6.0-1.27,,,,,,,,,,,178462,,61,html-keyboard-response,,
562,list1,,,,,,0.0-6.0-0.28,neutral,,2473,,5567,control,5000,246,audio/246_CN7.wav,,184034,,62,audio-slider-response,7,
562,list1,,,,,,0.0-6.0-1.28,,,,,,,,,,,184536,,63,html-keyboard-response,,
562,list1,,,,,,0.0-6.0-0.29,neutral,,2032,,4267,control,5000,246,audio/246_CN1.wav,,188804,,64,audio-slider-response,1,
562,list1,,,,,,0.0-6.0-1.29,,,,,,,,,,,189305,,65,html-keyboard-response,,
562,list1,,,,,,0.0-6.0-0.30,neutral,,6990,,3245,control,5000,340,audio/340_CN2.wav,,192555,,66,audio-slider-response,2,
562,list1,,,,,,0.0-6.0-1.30,,,,,,,,,,,193057,,67,html-keyboard-response,,
562,list1,,,,,,0.0-6.0-0.31,neutral,,6327,,2786,high,5000,340,audio/340_SN18_high.wav,,195849,,68,audio-slider-response,18,
562,list1,,,,,,0.0-6.0-1.31,,,,,,,,,,,196350,,69,html-keyboard-response,,
562,list1,,,,,,0.0-6.0-0.32,neutral,,3503,,3471,low,5000,246,audio/246_SN14_low.wav,,199825,,70,audio-slider-response,14,
562,list1,,,,,,0.0-6.0-1.32,,,,,,,,,,,200327,,71,html-keyboard-response,,
562,list1,,,,,,0.0-6.0-0.33,neutral,,7453,,4360,low,5000,340,audio/340_SN8_low.wav,,204688,,72,audio-slider-response,8,
562,list1,,,,,,0.0-6.0-1.33,,,,,,,,,,,205189,,73,html-keyboard-response,,
562,list1,,,,,,0.0-6.0-0.34,neutral,,4705,,4563,high,5000,340,audio/340_SN15_high.wav,,209758,,74,audio-slider-response,15,
562,list1,,,,,,0.0-6.0-1.34,,,,,,,,,,,210260,,75,html-keyboard-response,,
562,list1,,,,,,0.0-6.0-0.35,neutral,,6005,,4127,mid,5000,340,audio/340_SN10_mid.wav,,214390,,76,audio-slider-response,10,
562,list1,,,,,,0.0-6.0-1.35,,,,,,,,,,,214892,,77,html-keyboard-response,,
562,list1,,,,,,0.0-6.0-0.36,neutral,,5998,,3129,mid,5000,340,audio/340_SN17_mid.wav,,218024,,78,audio-slider-response,17,
562,list1,,,,,,0.0-6.0-1.36,,,,,,,,,,,218525,,79,html-keyboard-response,,
562,list1,,,,,,0.0-6.0-0.37,neutral,,7212,,2206,control,5000,723,audio/723_CN14.wav,,220735,,80,audio-slider-response,14,
562,list1,,,,,,0.0-6.0-1.37,,,,,,,,,,,221237,,81,html-keyboard-response,,
562,list1,,,,,,0.0-6.0-0.38,neutral,,2874,,4081,control,5000,246,audio/246_CN5.wav,,225318,,82,audio-slider-response,5,
562,list1,,,,,,0.0-6.0-1.38,,,,,,,,,,,225820,,83,html-keyboard-response,,
562,list1,,,,,,0.0-6.0-0.39,neutral,,8549,,3338,control,5000,340,audio/340_CN15.wav,,229160,,84,audio-slider-response,15,
562,list1,,,,,,0.0-6.0-1.39,,,,,,,,,,,229660,,85,html-keyboard-response,,
562,list1,,,,,,0.0-6.0-0.40,neutral,,7450,,2397,control,5000,723,audio/723_CN2.wav,,232057,,86,audio-slider-response,2,
562,list1,,,,,,0.0-6.0-1.40,,,,,,,,,,,232559,,87,html-keyboard-response,,
562,list1,,,,,,0.0-6.0-0.41,neutral,,8780,,3100,mid,5000,340,audio/340_SN21_mid.wav,,235661,,88,audio-slider-response,21,
562,list1,,,,,,0.0-6.0-1.41,,,,,,,,,,,236163,,89,html-keyboard-response,,
562,list1,,,,,,0.0-6.0-0.42,neutral,,6938,,2804,control,5000,723,audio/723_CN13.wav,,238966,,90,audio-slider-response,13,
562,list1,,,,,,0.0-6.0-1.42,,,,,,,,,,,239468,,91,html-keyboard-response,,
562,list1,,,,,,0.0-6.0-0.43,neutral,,5629,,2519,control,5000,723,audio/723_CN15.wav,,241992,,92,audio-slider-response,15,
562,list1,,,,,,0.0-6.0-1.43,,,,,,,,,,,242493,,93,html-keyboard-response,,
562,list1,,,,,,0.0-6.0-0.44,neutral,,1512,,4185,high,5000,246,audio/246_SN19_high.wav,,246680,,94,audio-slider-response,19,
562,list1,,,,,,0.0-6.0-1.44,,,,,,,,,,,247181,,95,html-keyboard-response,,
562,list1,,,,,,0.0-6.0-0.45,neutral,,2686,,3193,control,5000,246,audio/246_CN13.wav,,250375,,96,audio-slider-response,13,
562,list1,,,,,,0.0-6.0-1.45,,,,,,,,,,,250876,,97,html-keyboard-response,,
562,list1,,,,,,0.0-6.0-0.46,neutral,,7767,,2897,high,5000,340,audio/340_SN19_high.wav,,253775,,98,audio-slider-response,19,
562,list1,,,,,,0.0-6.0-1.46,,,,,,,,,,,254277,,99,html-keyboard-response,,
562,list1,,,,,,0.0-6.0-0.47,neutral,,7182,,3518,control,5000,723,audio/723_CN9.wav,,257797,,100,audio-slider-response,9,
562,list1,,,,,,0.0-6.0-1.47,,,,,,,,,,,258298,,101,html-keyboard-response,,
562,list1,,,,,,0.0-6.0-0.48,neutral,,3495,,3024,high,5000,246,audio/246_SN18_high.wav,,261320,,102,audio-slider-response,18,
562,list1,,,,,,0.0-6.0-1.48,,,,,,,,,,,261823,,103,html-keyboard-response,,
562,list1,,,,,,0.0-6.0-0.49,neutral,,6936,,4063,low,5000,340,audio/340_SN3_low.wav,,265883,,104,audio-slider-response,3,
562,list1,,,,,,0.0-6.0-1.49,,,,,,,,,,,266386,,105,html-keyboard-response,,
562,list1,,,,,,0.0-6.0-0.50,neutral,,5642,,3059,control,5000,723,audio/723_CN16.wav,,269444,,106,audio-slider-response,16,
562,list1,,,,,,0.0-6.0-1.50,,,,,,,,,,,269946,,107,html-keyboard-response,,
562,list1,,,,,,0.0-6.0-0.51,neutral,,3026,,2955,control,5000,246,audio/246_CN15.wav,,272905,,108,audio-slider-response,15,
562,list1,,,,,,0.0-6.0-1.51,,,,,,,,,,,273408,,109,html-keyboard-response,,
562,list1,,,,,,0.0-6.0-0.52,neutral,,1608,,3971,low,5000,246,audio/246_SN7_low.wav,,277377,,110,audio-slider-response,7,
562,list1,,,,,,0.0-6.0-1.52,,,,,,,,,,,277879,,111,html-keyboard-response,,
562,list1,,,,,,0.0-6.0-0.53,neutral,,917,,3071,control,5000,246,audio/246_CN3.wav,,280950,,112,audio-slider-response,3,
562,list1,,,,,,0.0-6.0-1.53,,,,,,,,,,,281453,,113,html-keyboard-response,,
562,list1,,,,,,0.0-6.0-0.54,neutral,,6912,,4690,high,5000,723,audio/723_SN19_high.wav,,286144,,114,audio-slider-response,19,
562,list1,,,,,,0.0-6.0-1.54,,,,,,,,,,,286645,,115,html-keyboard-response,,
562,list1,,,,,,0.0-6.0-0.55,neutral,,6459,,3628,low,5000,723,audio/723_SN8_low.wav,,290275,,116,audio-slider-response,8,
562,list1,,,,,,0.0-6.0-1.55,,,,,,,,,,,290777,,117,html-keyboard-response,,
562,list1,,,,,,0.0-6.0-0.56,neutral,,1706,,4127,high,5000,246,audio/246_SN5_high.wav,,294907,,118,audio-slider-response,5,
562,list1,,,,,,0.0-6.0-1.56,,,,,,,,,,,295408,,119,html-keyboard-response,,
562,list1,,,,,,0.0-6.0-0.57,neutral,,8320,,2833,control,5000,340,audio/340_CN10.wav,,298243,,120,audio-slider-response,10,
562,list1,,,,,,0.0-6.0-1.57,,,,,,,,,,,298744,,121,html-keyboard-response,,
562,list1,,,,,,0.0-6.0-0.58,neutral,,7886,,3454,control,5000,723,audio/723_CN4.wav,,302201,,122,audio-slider-response,4,
562,list1,,,,,,0.0-6.0-1.58,,,,,,,,,,,302703,,123,html-keyboard-response,,
562,list1,,,,,,0.0-6.0-0.59,neutral,,6963,,3245,control,5000,340,audio/340_CN3.wav,,305949,,124,audio-slider-response,3,
562,list1,,,,,,0.0-6.0-1.59,,,,,,,,,,,306450,,125,html-keyboard-response,,
562,list1,,,,,,0.0-6.0-0.60,neutral,,2445,,3106,control,5000,246,audio/246_CN2.wav,,309559,,126,audio-slider-response,2,
562,list1,,,,,,0.0-6.0-1.60,,,,,,,,,,,310062,,127,html-keyboard-response,,
562,list1,,,,,,0.0-6.0-0.61,neutral,,2133,,3338,control,5000,246,audio/246_CN9.wav,,313403,,128,audio-slider-response,9,
562,list1,,,,,,0.0-6.0-1.61,,,,,,,,,,,313905,,129,html-keyboard-response,,
562,list1,,,,,,0.0-6.0-0.62,neutral,,2857,,2688,mid,5000,246,audio/246_SN2_mid.wav,,316594,,130,audio-slider-response,2,
562,list1,,,,,,0.0-6.0-1.62,,,,,,,,,,,317096,,131,html-keyboard-response,,
562,list1,,,,,,0.0-6.0-0.63,neutral,,7593,,2775,mid,5000,723,audio/723_SN21_mid.wav,,319871,,132,audio-slider-response,21,
562,list1,,,,,,0.0-6.0-1.63,,,,,,,,,,,320372,,133,html-keyboard-response,,
562,list1,,,,,,0.0-6.0-0.64,neutral,,3630,,3077,control,5000,246,audio/246_CN18.wav,,323447,,134,audio-slider-response,18,
562,list1,,,,,,0.0-6.0-1.64,,,,,,,,,,,323949,,135,html-keyboard-response,,
562,list1,,,,,,0.0-6.0-0.65,neutral,,8797,,3303,control,5000,723,audio/723_CN5.wav,,327251,,136,audio-slider-response,5,
562,list1,,,,,,0.0-6.0-1.65,,,,,,,,,,,327752,,137,html-keyboard-response,,
562,list1,,,,,,0.0-6.0-0.66,neutral,,9034,,2943,low,5000,340,audio/340_SN7_low.wav,,330698,,138,audio-slider-response,7,
562,list1,,,,,,0.0-6.0-1.66,,,,,,,,,,,331200,,139,html-keyboard-response,,
562,list1,,,,,,0.0-6.0-0.67,neutral,,2615,,4191,mid,5000,246,audio/246_SN17_mid.wav,,335390,,140,audio-slider-response,17,
562,list1,,,,,,0.0-6.0-1.67,,,,,,,,,,,335891,,141,html-keyboard-response,,
562,list1,,,,,,0.0-6.0-0.68,neutral,,6151,,3529,control,5000,723,audio/723_CN21.wav,,339426,,142,audio-slider-response,21,
562,list1,,,,,,0.0-6.0-1.68,,,,,,,,,,,339928,,143,html-keyboard-response,,
562,list1,,,,,,0.0-6.0-0.69,neutral,,4592,,4470,control,5000,340,audio/340_CN9.wav,,344402,,144,audio-slider-response,9,
562,list1,,,,,,0.0-6.0-1.69,,,,,,,,,,,344903,,145,html-keyboard-response,,
562,list1,,,,,,0.0-6.0-0.70,neutral,,2890,,4011,control,5000,246,audio/246_CN21.wav,,348915,,146,audio-slider-response,21,
562,list1,,,,,,0.0-6.0-1.70,,,,,,,,,,,349417,,147,html-keyboard-response,,
562,list1,,,,,,0.0-6.0-0.71,neutral,,6738,,3704,high,5000,340,audio/340_SN5_high.wav,,353124,,148,audio-slider-response,5,
562,list1,,,,,,0.0-6.0-1.71,,,,,,,,,,,353626,,149,html-keyboard-response,,
562,list1,,,,,,0.0-6.0-0.72,neutral,,2758,,2548,mid,5000,246,audio/246_SN21_mid.wav,,356179,,150,audio-slider-response,21,
562,list1,,,,,,0.0-6.0-1.72,,,,,,,,,,,356681,,151,html-keyboard-response,,
562,list1,,,,,,0.0-6.0-0.73,neutral,,5671,,2490,control,5000,340,audio/340_CN13.wav,,359177,,152,audio-slider-response,13,
562,list1,,,,,,0.0-6.0-1.73,,,,,,,,,,,359678,,153,html-keyboard-response,,
562,list1,,,,,,0.0-6.0-0.74,neutral,,7043,,3651,control,5000,340,audio/340_CN18.wav,,363334,,154,audio-slider-response,18,
562,list1,,,,,,0.0-6.0-1.74,,,,,,,,,,,363836,,155,html-keyboard-response,,
562,list1,,,,,,0.0-6.0-0.75,neutral,,8796,,3947,control,5000,723,audio/723_CN10.wav,,367780,,156,audio-slider-response,10,
562,list1,,,,,,0.0-6.0-1.75,,,,,,,,,,,368282,,157,html-keyboard-response,,
562,list1,,,,,,0.0-6.0-0.76,neutral,,2289,,4859,control,5000,246,audio/246_CN17.wav,,373144,,158,audio-slider-response,17,
562,list1,,,,,,0.0-6.0-1.76,,,,,,,,,,,373646,,159,html-keyboard-response,,
562,list1,,,,,,0.0-6.0-0.77,neutral,,9043,,3326,control,5000,340,audio/340_CN21.wav,,376976,,160,audio-slider-response,21,
562,list1,,,,,,0.0-6.0-1.77,,,,,,,,,,,377478,,161,html-keyboard-response,,
562,list1,,,,,,0.0-6.0-0.78,neutral,,2644,,3152,high,5000,246,audio/246_SN20_high.wav,,380630,,162,audio-slider-response,20,
562,list1,,,,,,0.0-6.0-1.78,,,,,,,,,,,381131,,163,html-keyboard-response,,
562,list1,,,,,,0.0-6.0-0.79,neutral,,7600,,2705,control,5000,340,audio/340_CN17.wav,,383839,,164,audio-slider-response,17,
562,list1,,,,,,0.0-6.0-1.79,,,,,,,,,,,384341,,165,html-keyboard-response,,
562,list1,,,,,,0.0-6.0-0.80,neutral,,8372,,2664,mid,5000,340,audio/340_SN16_mid.wav,,387005,,166,audio-slider-response,16,
562,list1,,,,,,0.0-6.0-1.80,,,,,,,,,,,387507,,167,html-keyboard-response,,
562,list1,,,,,,0.0-6.0-0.81,neutral,,8545,,2705,mid,5000,723,audio/723_SN10_mid.wav,,390217,,168,audio-slider-response,10,
562,list1,,,,,,0.0-6.0-1.81,,,,,,,,,,,390719,,169,html-keyboard-response,,
562,list1,,,,,,0.0-6.0-0.82,neutral,,8926,,2194,control,5000,340,audio/340_CN4.wav,,392916,,170,audio-slider-response,4,
562,list1,,,,,,0.0-6.0-1.82,,,,,,,,,,,393418,,171,html-keyboard-response,,
562,list1,,,,,,0.0-6.0-0.83,neutral,,7769,,4685,control,5000,340,audio/340_CN7.wav,,398105,,172,audio-slider-response,7,
562,list1,,,,,,0.0-6.0-1.83,,,,,,,,,,,398607,,173,html-keyboard-response,,
562,list1,,,,,,0.0-6.0-0.84,neutral,,6557,,3379,low,5000,723,audio/723_SN14_low.wav,,401987,,174,audio-slider-response,14,
562,list1,,,,,,0.0-6.0-1.84,,,,,,,,,,,402488,,175,html-keyboard-response,,
562,list1,,,,,,0.0-6.0-0.85,neutral,,7304,,3164,high,5000,723,audio/723_SN20_high.wav,,405657,,176,audio-slider-response,20,
562,list1,,,,,,0.0-6.0-1.85,,,,,,,,,,,406158,,177,html-keyboard-response,,
562,list1,,,,,,0.0-6.0-0.86,neutral,,7296,,3077,control,5000,340,audio/340_CN16.wav,,409238,,178,audio-slider-response,16,
562,list1,,,,,,0.0-6.0-1.86,,,,,,,,,,,409740,,179,html-keyboard-response,,
562,list1,,,,,,0.0-6.0-0.87,neutral,,2319,,4725,mid,5000,246,audio/246_SN10_mid.wav,,414467,,180,audio-slider-response,10,
562,list1,,,,,,0.0-6.0-1.87,,,,,,,,,,,414969,,181,html-keyboard-response,,
562,list1,,,,,,0.0-6.0-0.88,neutral,,6848,,3843,low,5000,723,audio/723_SN3_low.wav,,418809,,182,audio-slider-response,3,
562,list1,,,,,,0.0-6.0-1.88,,,,,,,,,,,419311,,183,html-keyboard-response,,
562,list1,,,,,,0.0-6.0-0.89,neutral,,5746,,4818,control,5000,340,audio/340_CN5.wav,,424129,,184,audio-slider-response,5,
562,list1,,,,,,0.0-6.0-1.89,,,,,,,,,,,424631,,185,html-keyboard-response,,
562,list1,,,,,,0.0-6.0-0.90,neutral,,7185,,3111,control,5000,723,audio/723_CN19.wav,,427746,,186,audio-slider-response,19,
562,list1,,,,,,0.0-6.0-1.90,,,,,,,,,,,428249,,187,html-keyboard-response,,
562,list1,,,,,,0.0-6.0-0.91,neutral,,6864,,4180,high,5000,723,audio/723_SN5_high.wav,,432428,,188,audio-slider-response,5,
562,list1,,,,,,0.0-6.0-1.91,,,,,,,,,,,432929,,189,html-keyboard-response,,
562,list1,,,,,,0.0-6.0-0.92,neutral,,6870,,5834,control,5000,723,audio/723_CN7.wav,,438761,,190,audio-slider-response,7,
562,list1,,,,,,0.0-6.0-1.92,,,,,,,,,,,439263,,191,html-keyboard-response,,
562,list1,,,,,,0.0-6.0-0.93,neutral,,5612,,4911,mid,5000,723,audio/723_SN2_mid.wav,,444176,,192,audio-slider-response,2,
562,list1,,,,,,0.0-6.0-1.93,,,,,,,,,,,444677,,193,html-keyboard-response,,
562,list1,,,,,,0.0-6.0-0.94,neutral,,6631,,2972,mid,5000,723,audio/723_SN17_mid.wav,,447648,,194,audio-slider-response,17,
562,list1,,,,,,0.0-6.0-1.94,,,,,,,,,,,448150,,195,html-keyboard-response,,
562,list1,,,,,,0.0-6.0-0.95,neutral,,1676,,2258,mid,5000,246,audio/246_SN16_mid.wav,,450409,,196,audio-slider-response,16,
562,list1,,,,,,0.0-6.0-1.95,,,,,,,,,,,450911,,197,html-keyboard-response,,
562,list1,,,,,,0.0-6.0-0.96,neutral,,1022,,2792,high,5000,246,audio/246_SN15_high.wav,,453704,,198,audio-slider-response,15,
562,list1,,,,,,0.0-6.0-1.96,,,,,,,,,,,454206,,199,html-keyboard-response,,
562,list1,,,,,,0.0-6.0-0.97,neutral,,1953,,2833,control,5000,246,audio/246_CN14.wav,,457039,,200,audio-slider-response,14,
562,list1,,,,,,0.0-6.0-1.97,,,,,,,,,,,457542,,201,html-keyboard-response,,
562,list1,,,,,,0.0-6.0-0.98,neutral,,1497,,3280,control,5000,246,audio/246_CN8.wav,,460820,,202,audio-slider-response,8,
562,list1,,,,,,0.0-6.0-1.98,,,,,,,,,,,461322,,203,html-keyboard-response,,
562,list1,,,,,,0.0-6.0-0.99,neutral,,7158,,3280,low,5000,723,audio/723_SN13_low.wav,,464603,,204,audio-slider-response,13,
562,list1,,,,,,0.0-6.0-1.99,,,,,,,,,,,465105,,205,html-keyboard-response,,
562,list1,,,,,,0.0-6.0-0.100,neutral,,5895,,4058,high,5000,723,audio/723_SN18_high.wav,,469165,,206,audio-slider-response,18,
562,list1,,,,,,0.0-6.0-1.100,,,,,,,,,,,469667,,207,html-keyboard-response,,
562,list1,,,,,,0.0-6.0-0.101,neutral,,5466,,4133,high,5000,340,audio/340_SN9_high.wav,,473801,,208,audio-slider-response,9,
562,list1,,,,,,0.0-6.0-1.101,,,,,,,,,,,474302,,209,html-keyboard-response,,
562,list1,,,,,,0.0-6.0-0.102,neutral,,7205,,2786,control,5000,723,audio/723_CN8.wav,,477087,,210,audio-slider-response,8,
562,list1,,,,,,0.0-6.0-1.102,,,,,,,,,,,477588,,211,html-keyboard-response,,
562,list1,,,,,,0.0-6.0-0.103,neutral,,4479,,3599,mid,5000,723,audio/723_SN4_mid.wav,,481186,,212,audio-slider-response,4,
562,list1,,,,,,0.0-6.0-1.103,,,,,,,,,,,481688,,213,html-keyboard-response,,
562,list1,,,,,,0.0-6.0-0.104,neutral,,6141,,4104,high,5000,723,audio/723_SN9_high.wav,,485796,,214,audio-slider-response,9,
562,list1,,,,,,0.0-6.0-1.104,,,,,,,,,,,486298,,215,html-keyboard-response,,
562,list1,,,,,,0.0-6.0-0.105,neutral,,4393,,3675,control,5000,340,audio/340_CN19.wav,,489977,,216,audio-slider-response,19,
562,list1,,,,,,0.0-6.0-1.105,,,,,,,,,,,490478,,217,html-keyboard-response,,
562,list1,,,,,,0.0-6.0-0.106,neutral,,1636,,2345,control,5000,246,audio/246_CN16.wav,,492826,,218,audio-slider-response,16,
562,list1,,,,,,0.0-6.0-1.106,,,,,,,,,,,493328,,219,html-keyboard-response,,
562,list1,,,,,,0.0-6.0-0.107,neutral,,1511,,3442,control,5000,246,audio/246_CN20.wav,,496773,,220,audio-slider-response,20,
562,list1,,,,,,0.0-6.0-1.107,,,,,,,,,,,497277,,221,html-keyboard-response,,
562,list1,,,,,,0.0-7.0,,,0,,5943,,,,"<p><font size='3'>You have completed the listening trials. You will now complete a short questionnaire. During the questionnaire, you will see a series of statements alongside a scale. Click along the scale to indicate how much you agree or disagree with the statement. Upon completion of the questionnaire, you will be asked to fill out an optional demographic survey. <br><br>When you're ready to begin the questionnaire, click ‘Continue’.</font></p>",,503221,,222,html-button-response,,
562,list1,,POSITIVE,,,,0.0-8.0-0.0,,,6047,,6254,,5000,,Girls should be protected and watched over more than boys.<br><br>,,509478,,223,html-slider-response,,
562,list1,,POSITIVE,,,,0.0-8.0-0.1,,,0,,3454,,5000,,Some types of work are just not appropriate for women.<br><br>,,512933,,224,html-slider-response,,
562,list1,,NEGATIVE,,,,0.0-8.0-0.2,,,10000,,5118,,5000,,People can be both aggressive and nurturing regardless of sex.<br><br>,,518053,,225,html-slider-response,,
562,list1,,POSITIVE,,,,0.0-8.0-0.3,,,1155,,3783,,5000,,Men are more sexual than women.<br><br>,,521838,,226,html-slider-response,,
562,list1,,NEGATIVE,,,,0.0-8.0-0.4,,,8538,,4958,,5000,,People should be treated the same regardless of their sex.<br><br>,,526797,,227,html-slider-response,,
562,list1,,NEGATIVE,,,,0.0-8.0-0.5,,,8523,,7657,,5000,,The freedom that children are given should be determined by their age and maturity level and not by their sex.<br><br>,,534456,,228,html-slider-response,,
562,list1,,POSITIVE,,,,0.0-8.0-0.6,,,2216,,6491,,5000,,A father’s major responsibility is to provide financially for his children.<br><br>,,540949,,229,html-slider-response,,
562,list1,,POSITIVE,,,,0.0-8.0-0.7,,,367,,3157,,5000,,Mothers should work only if necessary.<br><br>,,544108,,230,html-slider-response,,
562,list1,,NEGATIVE,,,,0.0-8.0-0.8,,,10000,,3900,,5000,,Tasks around the house should not be assigned by sex.<br><br>,,548010,,231,html-slider-response,,
562,list1,,NEGATIVE,,,,0.0-8.0-0.9,,,7715,,4556,,5000,,We should stop thinking about whether people are male or female and focus on other characteristics.<br><br>,,552567,,232,html-slider-response,,
562,list1,,POSITIVE,,,,0.0-8.0-0.10,,,1327,,4576,,5000,,Mothers should make most decisions about how children are brought up.<br><br>,,557145,,233,html-slider-response,,
562,list1,,POSITIVE,,,,0.0-8.0-0.11,,,0,,3471,,5000,,Only some types of work are appropriate for both men and women.<br><br>,,560617,,234,html-slider-response,,
562,list1,,POSITIVE,,,,0.0-8.0-0.12,,,0,,3962,,5000,,"For many important jobs, it is better to choose men instead of women.<br><br>",,564581,,235,html-slider-response,,
562,list1,,,,,,0.0-9.0,,,0,,3134,,,,"<p><font size='3'>You have completed the questionnaire. There will now be an optional survey. Please answer the following questions if you feel comfortable doing so. If you do not wish to answer a question, please leave it blank. <br><br>When you're ready to procede, click ‘Continue’.</font></p>",,567717,,236,html-button-response,,
562,list1,,,,,,0.0-10.0,,[0],{'Q0': 0},,2704,,,,,,570423,,237,survey-likert,,
562,list1,[],,,,,0.0-11.0,,,"{'age': '24', 'P0_Q0': None, 'enjoy': 'An average experiment', 'gender': 'Female', 'region': 'Midwest - IA, IL, IN, KS, MI, MN, MO, ND, NE, OH, SD, WI', 'correct': 'Yes', 'payment': 'The payment was fair', 'comments': '', 'language': 'English', 'education': 'Graduated college'}",,31293,,,,,,601797,,238,survey,,
562,list1,,,,,,0.0-12.0,,,0,,2097,,,,Thank you for your time! Please click 'Finish' and then wait a moment until you're directed back to Prolific.<br><br>,,603896,,239,html-button-response,,
568,list1,,,[],[],[],0.0-0.0,,,,,,,,,,True,2584,False,0,preload,,
568,list1,,,,,,0.0-1.0,,,0,,3691,,,,"<p><font size='3'>DESCRIPTION: You are invited to participate in a research study. Its general purpose is to understand how people perceive speech. We are interested in how people make use of varying properties of language to infer social information about a speaker. In this study, you will hear spoken sentences, and you will be asked to make simple decisions about the sentences you hear. Following this, you will be asked to complete a short questionnaire, where you will indicate on a sliding scale how much you agree or disagree with a series of statements. You will also be asked to complete an optional demographic survey. <br><br>TIME INVOLVEMENT: Your participation will take approximately 10 to 20 minutes. <br><br>RISKS AND BENEFITS: The foreseeable risks associated with this study are minimal. This judgment is based on a large body of experience with the same or similar procedures with people of similar ages, sex, origins, etc. Study data will be stored securely, in compliance with Stanford University standards, minimizing the risk of confidentiality breach. There are no known benefits to you for participating in this study, and we cannot and do not guarantee or promise that you will receive any benefits from this study. You will help us to understand how people perceive spoken language. <br><br>PAYMENT: You will be paid at the posted rate. <br><br>PARTICIPANT RIGHTS: If you have read this form and have decided to participate in this project, please understand your participation is voluntary and you have the right to withdraw your consent or discontinue participation at any time without penalty or loss of benefits to which you are otherwise entitled. The alternative is not to participate. You have the right to refuse to answer particular questions. The results of this research study may be presented at scientific or professional meetings or published in scientific journals. Your individual privacy will be maintained in all published and written data resulting from the study. In accordance with scientific norms, the data from this study may be used or shared with other researchers for future research (after removing personally identifying information) without additional consent from you. <br><br>CONTACT INFORMATION: If you have any questions, concerns or complaints about this research study, its procedures, risks and benefits, you should contact the Protocol Director Grace Brown at (616) 498-8188. If you are not satisfied with how this study is being conducted, or if you have any concerns, complaints, or general questions about the research or your rights as a participant, please contact the Stanford Institutional Review Board (IRB) to speak to someone independent of the research team at (650) 723-2480 or toll free at 1-866-680-2906. You can also write to the Stanford IRB, Stanford University, 3000 El Camino Real, Five Palo Alto Square, 4th Floor, Palo Alto, CA 94306 USA. <br><br>WAIVER OF DOCUMENTATION: If you agree to participate in this research, please click the 'Continue' button. </font></p>",,6278,,1,html-button-response,,
568,list1,,,,,,0.0-2.0,,,,,,,,,"<p><font size='3'>This study requires you to listen to audio clips. To ensure you can adequately hear the audio presented in this study, the next page will have an audio attention check. Please wear headphones, and be prepared to adjust the volume on your device if necessary. <br><br> When you are ready to begin the audio attention check, click 'Start'. </font></p>",,16290,,2,html-button-response,,
568,list1,,,,,,0.0-3.0,,,,incorrect,,,,,audio/gift.wav,,36304,,3,audio-button-response,,
568,list1,,,,,,0.0-4.0,,,0,,729151,,,,<p>Incorrect. Please adjust the volume of your device before beginning the study.</p>,,765458,,4,html-button-response,,
568,list1,,,,,,0.0-5.0,,,0,,3701,,,,"<p><font size='3'>In this experiment, you will listen to a series of sentences, produced by different speakers. While listening to each sentence, you will be prompted to rate the social characteristics of its speaker. To rate the social characteristics of a speaker, click along the scale that appears on your screen. You may click along this scale after the speaker stops talking. Try to respond as quickly as you can. If you do not respond within ten seconds, the experiment will advance automatically. There will be a progress bar at the top of the screen. When you're ready to hear the first speaker, click ‘Start’. </font></p>",,769162,,5,html-button-response,,
568,list1,,,,,,0.0-6.0-0.0,neutral,,,,,mid,5000,246,audio/246_SN2_mid.wav,,779181,,6,audio-slider-response,2,
568,list1,,,,,,0.0-6.0-1.0,,,,,,,,,,,779698,,7,html-keyboard-response,,
568,list1,,,,,,0.0-6.0-0.1,neutral,,,,,mid,5000,246,audio/246_SN10_mid.wav,,789715,,8,audio-slider-response,10,
568,list1,,,,,,0.0-6.0-1.1,,,,,,,,,,,790232,,9,html-keyboard-response,,
568,list1,,,,,,0.0-6.0-0.2,neutral,,5924,,5192,control,5000,340,audio/340_CN1.wav,,795418,,10,audio-slider-response,1,
568,list1,,,,,,0.0-6.0-1.2,,,,,,,,,,,795931,,11,html-keyboard-response,,
568,list1,,,,,,0.0-6.0-0.3,neutral,,4325,,6400,control,5000,246,audio/246_CN14.wav,,802332,,12,audio-slider-response,14,
568,list1,,,,,,0.0-6.0-1.3,,,,,,,,,,,802844,,13,html-keyboard-response,,
568,list1,,,,,,0.0-6.0-0.4,neutral,,2891,,5971,control,5000,246,audio/246_CN21.wav,,808807,,14,audio-slider-response,21,
568,list1,,,,,,0.0-6.0-1.4,,,,,,,,,,,809313,,15,html-keyboard-response,,
568,list1,,,,,,0.0-6.0-0.5,neutral,,2257,,4421,low,5000,723,audio/723_SN14_low.wav,,813734,,16,audio-slider-response,14,
568,list1,,,,,,0.0-6.0-1.5,,,,,,,,,,,814237,,17,html-keyboard-response,,
568,list1,,,,,,0.0-6.0-0.6,neutral,,3911,,3709,mid,5000,723,audio/723_SN2_mid.wav,,817950,,18,audio-slider-response,2,
568,list1,,,,,,0.0-6.0-1.6,,,,,,,,,,,818461,,19,html-keyboard-response,,
568,list1,,,,,,0.0-6.0-0.7,neutral,,7688,,4069,control,5000,246,audio/246_CN8.wav,,822530,,20,audio-slider-response,8,
568,list1,,,,,,0.0-6.0-1.7,,,,,,,,,,,823041,,21,html-keyboard-response,,
568,list1,,,,,,0.0-6.0-0.8,neutral,,4214,,4021,high,5000,246,audio/246_SN19_high.wav,,827061,,22,audio-slider-response,19,
568,list1,,,,,,0.0-6.0-1.8,,,,,,,,,,,827565,,23,html-keyboard-response,,
568,list1,,,,,,0.0-6.0-0.9,neutral,,8363,,5880,control,5000,340,audio/340_CN18.wav,,833455,,24,audio-slider-response,18,
568,list1,,,,,,0.0-6.0-1.9,,,,,,,,,,,833971,,25,html-keyboard-response,,
568,list1,,,,,,0.0-6.0-0.10,neutral,,3594,,3920,control,5000,723,audio/723_CN2.wav,,837892,,26,audio-slider-response,2,
568,list1,,,,,,0.0-6.0-1.10,,,,,,,,,,,838405,,27,html-keyboard-response,,
568,list1,,,,,,0.0-6.0-0.11,neutral,,2078,,4029,low,5000,246,audio/246_SN3_low.wav,,842442,,28,audio-slider-response,3,
568,list1,,,,,,0.0-6.0-1.11,,,,,,,,,,,842945,,29,html-keyboard-response,,
568,list1,,,,,,0.0-6.0-0.12,neutral,,5579,,5152,control,5000,340,audio/340_CN5.wav,,848101,,30,audio-slider-response,5,
568,list1,,,,,,0.0-6.0-1.12,,,,,,,,,,,848603,,31,html-keyboard-response,,
568,list1,,,,,,0.0-6.0-0.13,neutral,,6585,,3531,control,5000,340,audio/340_CN3.wav,,852136,,32,audio-slider-response,3,
568,list1,,,,,,0.0-6.0-1.13,,,,,,,,,,,852637,,33,html-keyboard-response,,
568,list1,,,,,,0.0-6.0-0.14,neutral,,8253,,5221,high,5000,246,audio/246_SN5_high.wav,,857865,,34,audio-slider-response,5,
568,list1,,,,,,0.0-6.0-1.14,,,,,,,,,,,858370,,35,html-keyboard-response,,
568,list1,,,,,,0.0-6.0-0.15,neutral,,6020,,4291,high,5000,246,audio/246_SN9_high.wav,,862665,,36,audio-slider-response,9,
568,list1,,,,,,0.0-6.0-1.15,,,,,,,,,,,863168,,37,html-keyboard-response,,
568,list1,,,,,,0.0-6.0-0.16,neutral,,5868,,3229,control,5000,246,audio/246_CN16.wav,,866403,,38,audio-slider-response,16,
568,list1,,,,,,0.0-6.0-1.16,,,,,,,,,,,866913,,39,html-keyboard-response,,
568,list1,,,,,,0.0-6.0-0.17,neutral,,8156,,5000,mid,5000,246,audio/246_SN17_mid.wav,,871911,,40,audio-slider-response,17,
568,list1,,,,,,0.0-6.0-1.17,,,,,,,,,,,872417,,41,html-keyboard-response,,
568,list1,,,,,,0.0-6.0-0.18,neutral,,8212,,3928,low,5000,246,audio/246_SN13_low.wav,,876351,,42,audio-slider-response,13,
568,list1,,,,,,0.0-6.0-1.18,,,,,,,,,,,876853,,43,html-keyboard-response,,
568,list1,,,,,,0.0-6.0-0.19,neutral,,6420,,5331,control,5000,246,audio/246_CN1.wav,,882184,,44,audio-slider-response,1,
568,list1,,,,,,0.0-6.0-1.19,,,,,,,,,,,882689,,45,html-keyboard-response,,
568,list1,,,,,,0.0-6.0-0.20,neutral,,6447,,4419,control,5000,246,audio/246_CN10.wav,,887108,,46,audio-slider-response,10,
568,list1,,,,,,0.0-6.0-1.20,,,,,,,,,,,887609,,47,html-keyboard-response,,
568,list1,,,,,,0.0-6.0-0.21,neutral,,5538,,3491,control,5000,723,audio/723_CN20.wav,,891103,,48,audio-slider-response,20,
568,list1,,,,,,0.0-6.0-1.21,,,,,,,,,,,891609,,49,html-keyboard-response,,
568,list1,,,,,,0.0-6.0-0.22,neutral,,6365,,4539,control,5000,246,audio/246_CN7.wav,,896149,,50,audio-slider-response,7,
568,list1,,,,,,0.0-6.0-1.22,,,,,,,,,,,896653,,51,html-keyboard-response,,
568,list1,,,,,,0.0-6.0-0.23,neutral,,6323,,3771,low,5000,246,audio/246_SN14_low.wav,,900426,,52,audio-slider-response,14,
568,list1,,,,,,0.0-6.0-1.23,,,,,,,,,,,900929,,53,html-keyboard-response,,
568,list1,,,,,,0.0-6.0-0.24,neutral,,4490,,4240,control,5000,723,audio/723_CN3.wav,,905171,,54,audio-slider-response,3,
568,list1,,,,,,0.0-6.0-1.24,,,,,,,,,,,905684,,55,html-keyboard-response,,
568,list1,,,,,,0.0-6.0-0.25,neutral,,6778,,3760,high,5000,246,audio/246_SN15_high.wav,,909451,,56,audio-slider-response,15,
568,list1,,,,,,0.0-6.0-1.25,,,,,,,,,,,909966,,57,html-keyboard-response,,
568,list1,,,,,,0.0-6.0-0.26,neutral,,6020,,3549,control,5000,246,audio/246_CN2.wav,,913521,,58,audio-slider-response,2,
568,list1,,,,,,0.0-6.0-1.26,,,,,,,,,,,914025,,59,html-keyboard-response,,
568,list1,,,,,,0.0-6.0-0.27,neutral,,4407,,3912,control,5000,340,audio/340_CN9.wav,,917939,,60,audio-slider-response,9,
568,list1,,,,,,0.0-6.0-1.27,,,,,,,,,,,918449,,61,html-keyboard-response,,
568,list1,,,,,,0.0-6.0-0.28,neutral,,4421,,5149,control,5000,723,audio/723_CN5.wav,,923606,,62,audio-slider-response,5,
568,list1,,,,,,0.0-6.0-1.28,,,,,,,,,,,924117,,63,html-keyboard-response,,
568,list1,,,,,,0.0-6.0-0.29,neutral,,6626,,5269,low,5000,246,audio/246_SN7_low.wav,,929396,,64,audio-slider-response,7,
568,list1,,,,,,0.0-6.0-1.29,,,,,,,,,,,929907,,65,html-keyboard-response,,
568,list1,,,,,,0.0-6.0-0.30,neutral,,5855,,4280,mid,5000,340,audio/340_SN2_mid.wav,,934195,,66,audio-slider-response,2,
568,list1,,,,,,0.0-6.0-1.30,,,,,,,,,,,934697,,67,html-keyboard-response,,
568,list1,,,,,,0.0-6.0-0.31,neutral,,7619,,3029,control,5000,340,audio/340_CN8.wav,,937735,,68,audio-slider-response,8,
568,list1,,,,,,0.0-6.0-1.31,,,,,,,,,,,938238,,69,html-keyboard-response,,
568,list1,,,,,,0.0-6.0-0.32,neutral,,8556,,3901,low,5000,723,audio/723_SN3_low.wav,,942136,,70,audio-slider-response,3,
568,list1,,,,,,0.0-6.0-1.32,,,,,,,,,,,942649,,71,html-keyboard-response,,
568,list1,,,,,,0.0-6.0-0.33,neutral,,8763,,3600,control,5000,723,audio/723_CN13.wav,,946249,,72,audio-slider-response,13,
568,list1,,,,,,0.0-6.0-1.33,,,,,,,,,,,946752,,73,html-keyboard-response,,
568,list1,,,,,,0.0-6.0-0.34,neutral,,4490,,4960,mid,5000,340,audio/340_SN4_mid.wav,,951713,,74,audio-slider-response,4,
568,list1,,,,,,0.0-6.0-1.34,,,,,,,,,,,952224,,75,html-keyboard-response,,
568,list1,,,,,,0.0-6.0-0.35,neutral,,5427,,6392,control,5000,340,audio/340_CN17.wav,,958621,,76,audio-slider-response,17,
568,list1,,,,,,0.0-6.0-1.35,,,,,,,,,,,959124,,77,html-keyboard-response,,
568,list1,,,,,,0.0-6.0-0.36,neutral,,6420,,2851,low,5000,723,audio/723_SN13_low.wav,,961976,,78,audio-slider-response,13,
568,list1,,,,,,0.0-6.0-1.36,,,,,,,,,,,962481,,79,html-keyboard-response,,
568,list1,,,,,,0.0-6.0-0.37,neutral,,6227,,5120,high,5000,340,audio/340_SN18_high.wav,,967601,,80,audio-slider-response,18,
568,list1,,,,,,0.0-6.0-1.37,,,,,,,,,,,968111,,81,html-keyboard-response,,
568,list1,,,,,,0.0-6.0-0.38,neutral,,4600,,3752,high,5000,340,audio/340_SN20_high.wav,,971860,,82,audio-slider-response,20,
568,list1,,,,,,0.0-6.0-1.38,,,,,,,,,,,972362,,83,html-keyboard-response,,
568,list1,,,,,,0.0-6.0-0.39,neutral,,7991,,4069,control,5000,246,audio/246_CN4.wav,,976434,,84,audio-slider-response,4,
568,list1,,,,,,0.0-6.0-1.39,,,,,,,,,,,976936,,85,html-keyboard-response,,
568,list1,,,,,,0.0-6.0-0.40,neutral,,8377,,3888,control,5000,246,audio/246_CN17.wav,,980834,,86,audio-slider-response,17,
568,list1,,,,,,0.0-6.0-1.40,,,,,,,,,,,981346,,87,html-keyboard-response,,
568,list1,,,,,,0.0-6.0-0.41,neutral,,6861,,5411,control,5000,723,audio/723_CN14.wav,,986760,,88,audio-slider-response,14,
568,list1,,,,,,0.0-6.0-1.41,,,,,,,,,,,987270,,89,html-keyboard-response,,
568,list1,,,,,,0.0-6.0-0.42,neutral,,8322,,3760,low,5000,723,audio/723_SN1_low.wav,,991028,,90,audio-slider-response,1,
568,list1,,,,,,0.0-6.0-1.42,,,,,,,,,,,991530,,91,html-keyboard-response,,
568,list1,,,,,,0.0-6.0-0.43,neutral,,8156,,5109,high,5000,723,audio/723_SN15_high.wav,,996642,,92,audio-slider-response,15,
568,list1,,,,,,0.0-6.0-1.43,,,,,,,,,,,997153,,93,html-keyboard-response,,
568,list1,,,,,,0.0-6.0-0.44,neutral,,7702,,6880,high,5000,723,audio/723_SN19_high.wav,,1004044,,94,audio-slider-response,19,
568,list1,,,,,,0.0-6.0-1.44,,,,,,,,,,,1004554,,95,html-keyboard-response,,
568,list1,,,,,,0.0-6.0-0.45,neutral,,8349,,4301,control,5000,246,audio/246_CN5.wav,,1008854,,96,audio-slider-response,5,
568,list1,,,,,,0.0-6.0-1.45,,,,,,,,,,,1009359,,97,html-keyboard-response,,
568,list1,,,,,,0.0-6.0-0.46,neutral,,3952,,3261,high,5000,340,audio/340_SN9_high.wav,,1012617,,98,audio-slider-response,9,
568,list1,,,,,,0.0-6.0-1.46,,,,,,,,,,,1013129,,99,html-keyboard-response,,
568,list1,,,,,,0.0-6.0-0.47,neutral,,4256,,4051,high,5000,340,audio/340_SN5_high.wav,,1017177,,100,audio-slider-response,5,
568,list1,,,,,,0.0-6.0-1.47,,,,,,,,,,,1017679,,101,html-keyboard-response,,
568,list1,,,,,,0.0-6.0-0.48,neutral,,5882,,3451,mid,5000,723,audio/723_SN17_mid.wav,,1021132,,102,audio-slider-response,17,
568,list1,,,,,,0.0-6.0-1.48,,,,,,,,,,,1021635,,103,html-keyboard-response,,
568,list1,,,,,,0.0-6.0-0.49,neutral,,6447,,3600,low,5000,246,audio/246_SN1_low.wav,,1025236,,104,audio-slider-response,1,
568,list1,,,,,,0.0-6.0-1.49,,,,,,,,,,,1025737,,105,html-keyboard-response,,
568,list1,,,,,,0.0-6.0-0.50,neutral,,6709,,3949,high,5000,723,audio/723_SN5_high.wav,,1029687,,106,audio-slider-response,5,
568,list1,,,,,,0.0-6.0-1.50,,,,,,,,,,,1030190,,107,html-keyboard-response,,
568,list1,,,,,,0.0-6.0-0.51,neutral,,8060,,3011,control,5000,246,audio/246_CN15.wav,,1033200,,108,audio-slider-response,15,
568,list1,,,,,,0.0-6.0-1.51,,,,,,,,,,,1033708,,109,html-keyboard-response,,
568,list1,,,,,,0.0-6.0-0.52,neutral,,4297,,4101,control,5000,340,audio/340_CN19.wav,,1037807,,110,audio-slider-response,19,
568,list1,,,,,,0.0-6.0-1.52,,,,,,,,,,,1038322,,111,html-keyboard-response,,
568,list1,,,,,,0.0-6.0-0.53,neutral,,3112,,3821,control,5000,340,audio/340_CN20.wav,,1042137,,112,audio-slider-response,20,
568,list1,,,,,,0.0-6.0-1.53,,,,,,,,,,,1042641,,113,html-keyboard-response,,
568,list1,,,,,,0.0-6.0-0.54,neutral,,3966,,4789,low,5000,340,audio/340_SN8_low.wav,,1047432,,114,audio-slider-response,8,
568,list1,,,,,,0.0-6.0-1.54,,,,,,,,,,,1047936,,115,html-keyboard-response,,
568,list1,,,,,,0.0-6.0-0.55,neutral,,6061,,4040,control,5000,723,audio/723_CN19.wav,,1051979,,116,audio-slider-response,19,
568,list1,,,,,,0.0-6.0-1.55,,,,,,,,,,,1052482,,117,html-keyboard-response,,
568,list1,,,,,,0.0-6.0-0.56,neutral,,6902,,2709,control,5000,340,audio/340_CN2.wav,,1055189,,118,audio-slider-response,2,
568,list1,,,,,,0.0-6.0-1.56,,,,,,,,,,,1055696,,119,html-keyboard-response,,
568,list1,,,,,,0.0-6.0-0.57,neutral,,8529,,2949,mid,5000,246,audio/246_SN21_mid.wav,,1058655,,120,audio-slider-response,21,
568,list1,,,,,,0.0-6.0-1.57,,,,,,,,,,,1059157,,121,html-keyboard-response,,
568,list1,,,,,,0.0-6.0-0.58,neutral,,6296,,4800,mid,5000,340,audio/340_SN17_mid.wav,,1063962,,122,audio-slider-response,17,
568,list1,,,,,,0.0-6.0-1.58,,,,,,,,,,,1064474,,123,html-keyboard-response,,
568,list1,,,,,,0.0-6.0-0.59,neutral,,4959,,4349,mid,5000,340,audio/340_SN21_mid.wav,,1068834,,124,audio-slider-response,21,
568,list1,,,,,,0.0-6.0-1.59,,,,,,,,,,,1069348,,125,html-keyboard-response,,
568,list1,,,,,,0.0-6.0-0.60,neutral,,8267,,4152,low,5000,246,audio/246_SN8_low.wav,,1073497,,126,audio-slider-response,8,
568,list1,,,,,,0.0-6.0-1.60,,,,,,,,,,,1074011,,127,html-keyboard-response,,
568,list1,,,,,,0.0-6.0-0.61,neutral,,5358,,4931,control,5000,340,audio/340_CN13.wav,,1078937,,128,audio-slider-response,13,
568,list1,,,,,,0.0-6.0-1.61,,,,,,,,,,,1079446,,129,html-keyboard-response,,
568,list1,,,,,,0.0-6.0-0.62,neutral,,5524,,6789,control,5000,340,audio/340_CN15.wav,,1086237,,130,audio-slider-response,15,
568,list1,,,,,,0.0-6.0-1.62,,,,,,,,,,,1086749,,131,html-keyboard-response,,
568,list1,,,,,,0.0-6.0-0.63,neutral,,5386,,3680,control,5000,723,audio/723_CN1.wav,,1090428,,132,audio-slider-response,1,
568,list1,,,,,,0.0-6.0-1.63,,,,,,,,,,,1090936,,133,html-keyboard-response,,
568,list1,,,,,,0.0-6.0-0.64,neutral,,5827,,3488,control,5000,340,audio/340_CN4.wav,,1094426,,134,audio-slider-response,4,
568,list1,,,,,,0.0-6.0-1.64,,,,,,,,,,,1094941,,135,html-keyboard-response,,
568,list1,,,,,,0.0-6.0-0.65,neutral,,5634,,4549,low,5000,340,audio/340_SN14_low.wav,,1099486,,136,audio-slider-response,14,
568,list1,,,,,,0.0-6.0-1.65,,,,,,,,,,,1100000,,137,html-keyboard-response,,
568,list1,,,,,,0.0-6.0-0.66,neutral,,,,,mid,5000,246,audio/246_SN16_mid.wav,,1110014,,138,audio-slider-response,16,
568,list1,,,,,,0.0-6.0-1.66,,,,,,,,,,,1110516,,139,html-keyboard-response,,
568,list1,,,,,,0.0-6.0-0.67,neutral,,7109,,7229,control,5000,723,audio/723_CN21.wav,,1117753,,140,audio-slider-response,21,
568,list1,,,,,,0.0-6.0-1.67,,,,,,,,,,,1118269,,141,html-keyboard-response,,
568,list1,,,,,,0.0-6.0-0.68,neutral,,6709,,3411,mid,5000,723,audio/723_SN10_mid.wav,,1121675,,142,audio-slider-response,10,
568,list1,,,,,,0.0-6.0-1.68,,,,,,,,,,,1122187,,143,html-keyboard-response,,
568,list1,,,,,,0.0-6.0-0.69,neutral,,8322,,3261,low,5000,723,audio/723_SN8_low.wav,,1125446,,144,audio-slider-response,8,
568,list1,,,,,,0.0-6.0-1.69,,,,,,,,,,,1125956,,145,html-keyboard-response,,
568,list1,,,,,,0.0-6.0-0.70,neutral,,,,,control,5000,723,audio/723_CN4.wav,,1135959,,146,audio-slider-response,4,
568,list1,,,,,,0.0-6.0-1.70,,,,,,,,,,,1136463,,147,html-keyboard-response,,
568,list1,,,,,,0.0-6.0-0.71,neutral,,7839,,4179,control,5000,246,audio/246_CN13.wav,,1140640,,148,audio-slider-response,13,
568,list1,,,,,,0.0-6.0-1.71,,,,,,,,,,,1141154,,149,html-keyboard-response,,
568,list1,,,,,,0.0-6.0-0.72,neutral,,7453,,4680,control,5000,723,audio/723_CN8.wav,,1145840,,150,audio-slider-response,8,
568,list1,,,,,,0.0-6.0-1.72,,,,,,,,,,,1146351,,151,html-keyboard-response,,
568,list1,,,,,,0.0-6.0-0.73,neutral,,7247,,3960,control,5000,723,audio/723_CN7.wav,,1150311,,152,audio-slider-response,7,
568,list1,,,,,,0.0-6.0-1.73,,,,,,,,,,,1150813,,153,html-keyboard-response,,
568,list1,,,,,,0.0-6.0-0.74,neutral,,7412,,3931,high,5000,246,audio/246_SN20_high.wav,,1154738,,154,audio-slider-response,20,
568,list1,,,,,,0.0-6.0-1.74,,,,,,,,,,,1155245,,155,html-keyboard-response,,
568,list1,,,,,,0.0-6.0-0.75,neutral,,8694,,6440,high,5000,246,audio/246_SN18_high.wav,,1161694,,156,audio-slider-response,18,
568,list1,,,,,,0.0-6.0-1.75,,,,,,,,,,,1162204,,157,html-keyboard-response,,
568,list1,,,,,,0.0-6.0-0.76,neutral,,5565,,3829,control,5000,340,audio/340_CN21.wav,,1166044,,158,audio-slider-response,21,
568,list1,,,,,,0.0-6.0-1.76,,,,,,,,,,,1166557,,159,html-keyboard-response,,
568,list1,,,,,,0.0-6.0-0.77,neutral,,6668,,5171,control,5000,723,audio/723_CN15.wav,,1171734,,160,audio-slider-response,15,
568,list1,,,,,,0.0-6.0-1.77,,,,,,,,,,,1172243,,161,html-keyboard-response,,
568,list1,,,,,,0.0-6.0-0.78,neutral,,8584,,4859,high,5000,723,audio/723_SN18_high.wav,,1177112,,162,audio-slider-response,18,
568,list1,,,,,,0.0-6.0-1.78,,,,,,,,,,,1177625,,163,html-keyboard-response,,
568,list1,,,,,,0.0-6.0-0.79,neutral,,7674,,4221,high,5000,723,audio/723_SN20_high.wav,,1181847,,164,audio-slider-response,20,
568,list1,,,,,,0.0-6.0-1.79,,,,,,,,,,,1182359,,165,html-keyboard-response,,
568,list1,,,,,,0.0-6.0-0.80,neutral,,5455,,8891,control,5000,340,audio/340_CN7.wav,,1191246,,166,audio-slider-response,7,
568,list1,,,,,,0.0-6.0-1.80,,,,,,,,,,,1191750,,167,html-keyboard-response,,
568,list1,,,,,,0.0-6.0-0.81,neutral,,6144,,7072,mid,5000,340,audio/340_SN16_mid.wav,,1198818,,168,audio-slider-response,16,
568,list1,,,,,,0.0-6.0-1.81,,,,,,,,,,,1199329,,169,html-keyboard-response,,
568,list1,,,,,,0.0-6.0-0.82,neutral,,2574,,4589,control,5000,246,audio/246_CN9.wav,,1203921,,170,audio-slider-response,9,
568,list1,,,,,,0.0-6.0-1.82,,,,,,,,,,,1204430,,171,html-keyboard-response,,
568,list1,,,,,,0.0-6.0-0.83,neutral,,4366,,4557,mid,5000,723,audio/723_SN21_mid.wav,,1208985,,172,audio-slider-response,21,
568,list1,,,,,,0.0-6.0-1.83,,,,,,,,,,,1209494,,173,html-keyboard-response,,
568,list1,,,,,,0.0-6.0-0.84,neutral,,6365,,3059,control,5000,246,audio/246_CN19.wav,,1212565,,174,audio-slider-response,19,
568,list1,,,,,,0.0-6.0-1.84,,,,,,,,,,,1213076,,175,html-keyboard-response,,
568,list1,,,,,,0.0-6.0-0.85,neutral,,8156,,4301,low,5000,723,audio/723_SN7_low.wav,,1217377,,176,audio-slider-response,7,
568,list1,,,,,,0.0-6.0-1.85,,,,,,,,,,,1217885,,177,html-keyboard-response,,
568,list1,,,,,,0.0-6.0-0.86,neutral,,7743,,7059,control,5000,246,audio/246_CN3.wav,,1224949,,178,audio-slider-response,3,
568,list1,,,,,,0.0-6.0-1.86,,,,,,,,,,,1225456,,179,html-keyboard-response,,
568,list1,,,,,,0.0-6.0-0.87,neutral,,4476,,5800,mid,5000,723,audio/723_SN4_mid.wav,,1231258,,180,audio-slider-response,4,
568,list1,,,,,,0.0-6.0-1.87,,,,,,,,,,,1231760,,181,html-keyboard-response,,
568,list1,,,,,,0.0-6.0-0.88,neutral,,6626,,3629,mid,5000,723,audio/723_SN16_mid.wav,,1235389,,182,audio-slider-response,16,
568,list1,,,,,,0.0-6.0-1.88,,,,,,,,,,,1235891,,183,html-keyboard-response,,
568,list1,,,,,,0.0-6.0-0.89,neutral,,7963,,3229,mid,5000,246,audio/246_SN4_mid.wav,,1239119,,184,audio-slider-response,4,
568,list1,,,,,,0.0-6.0-1.89,,,,,,,,,,,1239632,,185,html-keyboard-response,,
568,list1,,,,,,0.0-6.0-0.90,neutral,,7784,,4160,control,5000,340,audio/340_CN14.wav,,1243785,,186,audio-slider-response,14,
568,list1,,,,,,0.0-6.0-1.90,,,,,,,,,,,1244287,,187,html-keyboard-response,,
568,list1,,,,,,0.0-6.0-0.91,neutral,,5979,,4669,low,5000,340,audio/340_SN7_low.wav,,1248963,,188,audio-slider-response,7,
568,list1,,,,,,0.0-6.0-1.91,,,,,,,,,,,1249473,,189,html-keyboard-response,,
568,list1,,,,,,0.0-6.0-0.92,neutral,,4518,,3349,mid,5000,340,audio/340_SN10_mid.wav,,1252826,,190,audio-slider-response,10,
568,list1,,,,,,0.0-6.0-1.92,,,,,,,,,,,1253338,,191,html-keyboard-response,,
568,list1,,,,,,0.0-6.0-0.93,neutral,,4559,,3349,low,5000,340,audio/340_SN3_low.wav,,1256685,,192,audio-slider-response,3,
568,list1,,,,,,0.0-6.0-1.93,,,,,,,,,,,1257194,,193,html-keyboard-response,,
568,list1,,,,,,0.0-6.0-0.94,neutral,,6199,,4909,high,5000,723,audio/723_SN9_high.wav,,1262105,,194,audio-slider-response,9,
568,list1,,,,,,0.0-6.0-1.94,,,,,,,,,,,1262616,,195,html-keyboard-response,,
568,list1,,,,,,0.0-6.0-0.95,neutral,,5992,,5229,high,5000,340,audio/340_SN15_high.wav,,1267853,,196,audio-slider-response,15,
568,list1,,,,,,0.0-6.0-1.95,,,,,,,,,,,1268364,,197,html-keyboard-response,,
568,list1,,,,,,0.0-6.0-0.96,neutral,,3773,,3669,high,5000,340,audio/340_SN19_high.wav,,1272040,,198,audio-slider-response,19,
568,list1,,,,,,0.0-6.0-1.96,,,,,,,,,,,1272553,,199,html-keyboard-response,,
568,list1,,,,,,0.0-6.0-0.97,neutral,,5427,,8931,control,5000,246,audio/246_CN18.wav,,1281492,,200,audio-slider-response,18,
568,list1,,,,,,0.0-6.0-1.97,,,,,,,,,,,1281996,,201,html-keyboard-response,,
568,list1,,,,,,0.0-6.0-0.98,neutral,,4752,,3741,control,5000,723,audio/723_CN9.wav,,1285745,,202,audio-slider-response,9,
568,list1,,,,,,0.0-6.0-1.98,,,,,,,,,,,1286248,,203,html-keyboard-response,,
568,list1,,,,,,0.0-6.0-0.99,neutral,,8267,,3531,control,5000,246,audio/246_CN20.wav,,1289780,,204,audio-slider-response,20,
568,list1,,,,,,0.0-6.0-1.99,,,,,,,,,,,1290296,,205,html-keyboard-response,,
568,list1,,,,,,0.0-6.0-0.100,neutral,,5138,,3240,control,5000,723,audio/723_CN17.wav,,1293544,,206,audio-slider-response,17,
568,list1,,,,,,0.0-6.0-1.100,,,,,,,,,,,1294055,,207,html-keyboard-response,,
568,list1,,,,,,0.0-6.0-0.101,neutral,,8019,,4848,control,5000,723,audio/723_CN18.wav,,1298913,,208,audio-slider-response,18,
568,list1,,,,,,0.0-6.0-1.101,,,,,,,,,,,1299417,,209,html-keyboard-response,,
568,list1,,,,,,0.0-6.0-0.102,neutral,,6530,,2960,low,5000,340,audio/340_SN13_low.wav,,1302383,,210,audio-slider-response,13,
568,list1,,,,,,0.0-6.0-1.102,,,,,,,,,,,1302897,,211,html-keyboard-response,,
568,list1,,,,,,0.0-6.0-0.103,neutral,,4655,,3888,control,5000,340,audio/340_CN10.wav,,1306794,,212,audio-slider-response,10,
568,list1,,,,,,0.0-6.0-1.103,,,,,,,,,,,1307296,,213,html-keyboard-response,,
568,list1,,,,,,0.0-6.0-0.104,neutral,,1678,,3189,control,5000,723,audio/723_CN16.wav,,1310490,,214,audio-slider-response,16,
568,list1,,,,,,0.0-6.0-1.104,,,,,,,,,,,1311002,,215,html-keyboard-response,,
568,list1,,,,,,0.0-6.0-0.105,neutral,,7771,,3651,control,5000,723,audio/723_CN10.wav,,1314653,,216,audio-slider-response,10,
568,list1,,,,,,0.0-6.0-1.105,,,,,,,,,,,1315159,,217,html-keyboard-response,,
568,list1,,,,,,0.0-6.0-0.106,neutral,,7081,,3571,low,5000,340,audio/340_SN1_low.wav,,1318726,,218,audio-slider-response,1,
568,list1,,,,,,0.0-6.0-1.106,,,,,,,,,,,1319238,,219,html-keyboard-response,,
568,list1,,,,,,0.0-6.0-0.107,neutral,,2533,,4021,control,5000,340,audio/340_CN16.wav,,1323264,,220,audio-slider-response,16,
568,list1,,,,,,0.0-6.0-1.107,,,,,,,,,,,1323778,,221,html-keyboard-response,,
568,list1,,,,,,0.0-7.0,,,0,,15967,,,,"<p><font size='3'>You have completed the listening trials. You will now complete a short questionnaire. During the questionnaire, you will see a series of statements alongside a scale. Click along the scale to indicate how much you agree or disagree with the statement. Upon completion of the questionnaire, you will be asked to fill out an optional demographic survey. <br><br>When you're ready to begin the questionnaire, click ‘Continue’.</font></p>",,1339748,,222,html-button-response,,
568,list1,,NEGATIVE,,,,0.0-8.0-0.0,,,6392,,10988,,5000,,We should stop thinking about whether people are male or female and focus on other characteristics.<br><br>,,1350741,,223,html-slider-response,,
568,list1,,POSITIVE,,,,0.0-8.0-0.1,,,6116,,11976,,5000,,Men are more sexual than women.<br><br>,,1362721,,224,html-slider-response,,
568,list1,,POSITIVE,,,,0.0-8.0-0.2,,,8156,,7276,,5000,,Mothers should work only if necessary.<br><br>,,1370001,,225,html-slider-response,,
568,list1,,NEGATIVE,,,,0.0-8.0-0.3,,,6971,,8887,,5000,,People can be both aggressive and nurturing regardless of sex.<br><br>,,1378890,,226,html-slider-response,,
568,list1,,POSITIVE,,,,0.0-8.0-0.4,,,3429,,8645,,5000,,Only some types of work are appropriate for both men and women.<br><br>,,1387538,,227,html-slider-response,,
568,list1,,NEGATIVE,,,,0.0-8.0-0.5,,,6392,,8210,,5000,,Tasks around the house should not be assigned by sex.<br><br>,,1395751,,228,html-slider-response,,
568,list1,,POSITIVE,,,,0.0-8.0-0.6,,,,,,,5000,,A father’s major responsibility is to provide financially for his children.<br><br>,,1415755,,229,html-slider-response,,
568,list1,,POSITIVE,,,,0.0-8.0-0.7,,,6571,,5786,,5000,,Girls should be protected and watched over more than boys.<br><br>,,1421544,,230,html-slider-response,,
568,list1,,POSITIVE,,,,0.0-8.0-0.8,,,8570,,5252,,5000,,"For many important jobs, it is better to choose men instead of women.<br><br>",,1426799,,231,html-slider-response,,
568,list1,,POSITIVE,,,,0.0-8.0-0.9,,,8666,,5117,,5000,,Some types of work are just not appropriate for women.<br><br>,,1431918,,232,html-slider-response,,
568,list1,,NEGATIVE,,,,0.0-8.0-0.10,,,4132,,6855,,5000,,People should be treated the same regardless of their sex.<br><br>,,1438775,,233,html-slider-response,,
568,list1,,POSITIVE,,,,0.0-8.0-0.11,,,4835,,12082,,5000,,Mothers should make most decisions about how children are brought up.<br><br>,,1450859,,234,html-slider-response,,
568,list1,,NEGATIVE,,,,0.0-8.0-0.12,,,6916,,8806,,5000,,The freedom that children are given should be determined by their age and maturity level and not by their sex.<br><br>,,1459668,,235,html-slider-response,,
568,list1,,,,,,0.0-9.0,,,0,,5282,,,,"<p><font size='3'>You have completed the questionnaire. There will now be an optional survey. Please answer the following questions if you feel comfortable doing so. If you do not wish to answer a question, please leave it blank. <br><br>When you're ready to procede, click ‘Continue’.</font></p>",,1464953,,236,html-button-response,,
568,list1,,,,,,0.0-10.0,,[0],{'Q0': 1},,16274,,,,,,1481234,,237,survey-likert,,
568,list1,[],,,,,0.0-11.0,,,"{'age': '33', 'P0_Q0': None, 'enjoy': 'Better than the average experiment', 'gender': 'Female', 'region': 'Northeast - CT, DC, DE, MA, MD, ME, NH, NJ, NY, PA, RI, VT', 'correct': 'Yes', 'payment': 'The payment was fair', 'comments': '', 'language': 'English', 'education': 'Graduated college'}",,91279,,,,,,1572678,,238,survey,,
568,list1,,,,,,0.0-12.0,,,0,,2508,,,,Thank you for your time! Please click 'Finish' and then wait a moment until you're directed back to Prolific.<br><br>,,1575189,,239,html-button-response,,
586,list1,,,[],[],[],0.0-0.0,,,,,,,,,,True,966,False,0,preload,,
586,list1,,,,,,0.0-1.0,,,0,,83349,,,,"<p><font size='3'>DESCRIPTION: You are invited to participate in a research study. Its general purpose is to understand how people perceive speech. We are interested in how people make use of varying properties of language to infer social information about a speaker. In this study, you will hear spoken sentences, and you will be asked to make simple decisions about the sentences you hear. Following this, you will be asked to complete a short questionnaire, where you will indicate on a sliding scale how much you agree or disagree with a series of statements. You will also be asked to complete an optional demographic survey. <br><br>TIME INVOLVEMENT: Your participation will take approximately 10 to 20 minutes. <br><br>RISKS AND BENEFITS: The foreseeable risks associated with this study are minimal. This judgment is based on a large body of experience with the same or similar procedures with people of similar ages, sex, origins, etc. Study data will be stored securely, in compliance with Stanford University standards, minimizing the risk of confidentiality breach. There are no known benefits to you for participating in this study, and we cannot and do not guarantee or promise that you will receive any benefits from this study. You will help us to understand how people perceive spoken language. <br><br>PAYMENT: You will be paid at the posted rate. <br><br>PARTICIPANT RIGHTS: If you have read this form and have decided to participate in this project, please understand your participation is voluntary and you have the right to withdraw your consent or discontinue participation at any time without penalty or loss of benefits to which you are otherwise entitled. The alternative is not to participate. You have the right to refuse to answer particular questions. The results of this research study may be presented at scientific or professional meetings or published in scientific journals. Your individual privacy will be maintained in all published and written data resulting from the study. In accordance with scientific norms, the data from this study may be used or shared with other researchers for future research (after removing personally identifying information) without additional consent from you. <br><br>CONTACT INFORMATION: If you have any questions, concerns or complaints about this research study, its procedures, risks and benefits, you should contact the Protocol Director Grace Brown at (616) 498-8188. If you are not satisfied with how this study is being conducted, or if you have any concerns, complaints, or general questions about the research or your rights as a participant, please contact the Stanford Institutional Review Board (IRB) to speak to someone independent of the research team at (650) 723-2480 or toll free at 1-866-680-2906. You can also write to the Stanford IRB, Stanford University, 3000 El Camino Real, Five Palo Alto Square, 4th Floor, Palo Alto, CA 94306 USA. <br><br>WAIVER OF DOCUMENTATION: If you agree to participate in this research, please click the 'Continue' button. </font></p>",,84314,,1,html-button-response,,
586,list1,,,,,,0.0-2.0,,,,,,,,,"<p><font size='3'>This study requires you to listen to audio clips. To ensure you can adequately hear the audio presented in this study, the next page will have an audio attention check. Please wear headphones, and be prepared to adjust the volume on your device if necessary. <br><br> When you are ready to begin the audio attention check, click 'Start'. </font></p>",,94325,,2,html-button-response,,
586,list1,,,,,,0.0-3.0,,,2,correct,4163,,,,audio/gift.wav,,98583,,3,audio-button-response,,
586,list1,,,,,,0.0-4.0,,,0,,1848,,,,<p>Correct! You are ready to begin the study.</p>,,100432,,4,html-button-response,,
586,list1,,,,,,0.0-5.0,,,0,,26660,,,,"<p><font size='3'>In this experiment, you will listen to a series of sentences, produced by different speakers. While listening to each sentence, you will be prompted to rate the social characteristics of its speaker. To rate the social characteristics of a speaker, click along the scale that appears on your screen. You may click along this scale after the speaker stops talking. Try to respond as quickly as you can. If you do not respond within ten seconds, the experiment will advance automatically. There will be a progress bar at the top of the screen. When you're ready to hear the first speaker, click ‘Start’. </font></p>",,127094,,5,html-button-response,,
586,list1,,,,,,0.0-6.0-0.0,neutral,,582,,5413,mid,5000,246,audio/246_SN2_mid.wav,,132510,,6,audio-slider-response,2,
586,list1,,,,,,0.0-6.0-1.0,,,,,,,,,,,133016,,7,html-keyboard-response,,
586,list1,,,,,,0.0-6.0-0.1,neutral,,10,,4320,high,5000,246,audio/246_SN19_high.wav,,137328,,8,audio-slider-response,19,
586,list1,,,,,,0.0-6.0-1.1,,,,,,,,,,,137830,,9,html-keyboard-response,,
586,list1,,,,,,0.0-6.0-0.2,neutral,,251,,3229,mid,5000,246,audio/246_SN21_mid.wav,,141059,,10,audio-slider-response,21,
586,list1,,,,,,0.0-6.0-1.2,,,,,,,,,,,141566,,11,html-keyboard-response,,
586,list1,,,,,,0.0-6.0-0.3,neutral,,8373,,5256,control,5000,723,audio/723_CN8.wav,,146824,,12,audio-slider-response,8,
586,list1,,,,,,0.0-6.0-1.3,,,,,,,,,,,147337,,13,html-keyboard-response,,
586,list1,,,,,,0.0-6.0-0.4,neutral,,9230,,4571,control,5000,340,audio/340_CN2.wav,,151906,,14,audio-slider-response,2,
586,list1,,,,,,0.0-6.0-1.4,,,,,,,,,,,152415,,15,html-keyboard-response,,
586,list1,,,,,,0.0-6.0-0.5,neutral,,8989,,2989,control,5000,340,audio/340_CN16.wav,,155406,,16,audio-slider-response,16,
586,list1,,,,,,0.0-6.0-1.5,,,,,,,,,,,155919,,17,html-keyboard-response,,
586,list1,,,,,,0.0-6.0-0.6,neutral,,4673,,4885,high,5000,723,audio/723_SN15_high.wav,,160809,,18,audio-slider-response,15,
586,list1,,,,,,0.0-6.0-1.6,,,,,,,,,,,161320,,19,html-keyboard-response,,
586,list1,,,,,,0.0-6.0-0.7,neutral,,8854,,3864,high,5000,723,audio/723_SN19_high.wav,,165185,,20,audio-slider-response,19,
586,list1,,,,,,0.0-6.0-1.7,,,,,,,,,,,165688,,21,html-keyboard-response,,
586,list1,,,,,,0.0-6.0-0.8,neutral,,0,,3144,control,5000,246,audio/246_CN13.wav,,168823,,22,audio-slider-response,13,
586,list1,,,,,,0.0-6.0-1.8,,,,,,,,,,,169331,,23,html-keyboard-response,,
586,list1,,,,,,0.0-6.0-0.9,neutral,,0,,3155,low,5000,246,audio/246_SN1_low.wav,,172476,,24,audio-slider-response,1,
586,list1,,,,,,0.0-6.0-1.9,,,,,,,,,,,172987,,25,html-keyboard-response,,
586,list1,,,,,,0.0-6.0-0.10,neutral,,9471,,3589,mid,5000,340,audio/340_SN10_mid.wav,,176580,,26,audio-slider-response,10,
586,list1,,,,,,0.0-6.0-1.10,,,,,,,,,,,177088,,27,html-keyboard-response,,
586,list1,,,,,,0.0-6.0-0.11,neutral,,5395,,4813,high,5000,723,audio/723_SN20_high.wav,,181898,,28,audio-slider-response,20,
586,list1,,,,,,0.0-6.0-1.11,,,,,,,,,,,182403,,29,html-keyboard-response,,
586,list1,,,,,,0.0-6.0-0.12,neutral,,9095,,4571,control,5000,340,audio/340_CN8.wav,,186983,,30,audio-slider-response,8,
586,list1,,,,,,0.0-6.0-1.12,,,,,,,,,,,187490,,31,html-keyboard-response,,
586,list1,,,,,,0.0-6.0-0.13,neutral,,9847,,3899,low,5000,723,audio/723_SN3_low.wav,,191402,,32,audio-slider-response,3,
586,list1,,,,,,0.0-6.0-1.13,,,,,,,,,,,191913,,33,html-keyboard-response,,
586,list1,,,,,,0.0-6.0-0.14,neutral,,7215,,3853,high,5000,340,audio/340_SN18_high.wav,,195783,,34,audio-slider-response,18,
586,list1,,,,,,0.0-6.0-1.14,,,,,,,,,,,196288,,35,html-keyboard-response,,
586,list1,,,,,,0.0-6.0-0.15,neutral,,0,,3096,control,5000,246,audio/246_CN4.wav,,199388,,36,audio-slider-response,4,
586,list1,,,,,,0.0-6.0-1.15,,,,,,,,,,,199892,,37,html-keyboard-response,,
586,list1,,,,,,0.0-6.0-0.16,neutral,,9486,,4032,control,5000,340,audio/340_CN20.wav,,203923,,38,audio-slider-response,20,
586,list1,,,,,,0.0-6.0-1.16,,,,,,,,,,,204438,,39,html-keyboard-response,,
586,list1,,,,,,0.0-6.0-0.17,neutral,,71,,2915,control,5000,246,audio/246_CN8.wav,,207359,,40,audio-slider-response,8,
586,list1,,,,,,0.0-6.0-1.17,,,,,,,,,,,207873,,41,html-keyboard-response,,
586,list1,,,,,,0.0-6.0-0.18,neutral,,9260,,3240,control,5000,340,audio/340_CN4.wav,,211117,,42,audio-slider-response,4,
586,list1,,,,,,0.0-6.0-1.18,,,,,,,,,,,211621,,43,html-keyboard-response,,
586,list1,,,,,,0.0-6.0-0.19,neutral,,9591,,3000,mid,5000,340,audio/340_SN2_mid.wav,,214612,,44,audio-slider-response,2,
586,list1,,,,,,0.0-6.0-1.19,,,,,,,,,,,215119,,45,html-keyboard-response,,
586,list1,,,,,,0.0-6.0-0.20,neutral,,8974,,3155,mid,5000,340,audio/340_SN4_mid.wav,,218263,,46,audio-slider-response,4,
586,list1,,,,,,0.0-6.0-1.20,,,,,,,,,,,218767,,47,html-keyboard-response,,
586,list1,,,,,,0.0-6.0-0.21,neutral,,9095,,3168,low,5000,340,audio/340_SN1_low.wav,,221926,,48,audio-slider-response,1,
586,list1,,,,,,0.0-6.0-1.21,,,,,,,,,,,222427,,49,html-keyboard-response,,
586,list1,,,,,,0.0-6.0-0.22,neutral,,5545,,5629,high,5000,723,audio/723_SN18_high.wav,,228062,,50,audio-slider-response,18,
586,list1,,,,,,0.0-6.0-1.22,,,,,,,,,,,228567,,51,html-keyboard-response,,
586,list1,,,,,,0.0-6.0-0.23,neutral,,7801,,3613,control,5000,340,audio/340_CN9.wav,,232174,,52,audio-slider-response,9,
586,list1,,,,,,0.0-6.0-1.23,,,,,,,,,,,232686,,53,html-keyboard-response,,
586,list1,,,,,,0.0-6.0-0.24,neutral,,0,,4584,control,5000,246,audio/246_CN5.wav,,237273,,54,audio-slider-response,5,
586,list1,,,,,,0.0-6.0-1.24,,,,,,,,,,,237783,,55,html-keyboard-response,,
586,list1,,,,,,0.0-6.0-0.25,neutral,,7455,,4824,control,5000,723,audio/723_CN19.wav,,242605,,56,audio-slider-response,19,
586,list1,,,,,,0.0-6.0-1.25,,,,,,,,,,,243110,,57,html-keyboard-response,,
586,list1,,,,,,0.0-6.0-0.26,neutral,,0,,4141,low,5000,246,audio/246_SN13_low.wav,,247248,,58,audio-slider-response,13,
586,list1,,,,,,0.0-6.0-1.26,,,,,,,,,,,247752,,59,html-keyboard-response,,
586,list1,,,,,,0.0-6.0-0.27,neutral,,9396,,4080,control,5000,723,audio/723_CN14.wav,,251834,,60,audio-slider-response,14,
586,list1,,,,,,0.0-6.0-1.27,,,,,,,,,,,252335,,61,html-keyboard-response,,
586,list1,,,,,,0.0-6.0-0.28,neutral,,0,,3467,control,5000,246,audio/246_CN17.wav,,255811,,62,audio-slider-response,17,
586,list1,,,,,,0.0-6.0-1.28,,,,,,,,,,,256318,,63,html-keyboard-response,,
586,list1,,,,,,0.0-6.0-0.29,neutral,,0,,4621,control,5000,246,audio/246_CN21.wav,,260932,,64,audio-slider-response,21,
586,list1,,,,,,0.0-6.0-1.29,,,,,,,,,,,261437,,65,html-keyboard-response,,
586,list1,,,,,,0.0-6.0-0.30,neutral,,7320,,5579,high,5000,340,audio/340_SN9_high.wav,,267021,,66,audio-slider-response,9,
586,list1,,,,,,0.0-6.0-1.30,,,,,,,,,,,267524,,67,html-keyboard-response,,
586,list1,,,,,,0.0-6.0-0.31,neutral,,71,,3960,control,5000,246,audio/246_CN2.wav,,271497,,68,audio-slider-response,2,
586,list1,,,,,,0.0-6.0-1.31,,,,,,,,,,,272001,,69,html-keyboard-response,,
586,list1,,,,,,0.0-6.0-0.32,neutral,,7064,,5171,low,5000,723,audio/723_SN1_low.wav,,277165,,70,audio-slider-response,1,
586,list1,,,,,,0.0-6.0-1.32,,,,,,,,,,,277677,,71,html-keyboard-response,,
586,list1,,,,,,0.0-6.0-0.33,neutral,,0,,4501,high,5000,246,audio/246_SN5_high.wav,,282177,,72,audio-slider-response,5,
586,list1,,,,,,0.0-6.0-1.33,,,,,,,,,,,282681,,73,html-keyboard-response,,
586,list1,,,,,,0.0-6.0-0.34,neutral,,0,,4920,control,5000,246,audio/246_CN7.wav,,287594,,74,audio-slider-response,7,
586,list1,,,,,,0.0-6.0-1.34,,,,,,,,,,,288097,,75,html-keyboard-response,,
586,list1,,,,,,0.0-6.0-0.35,neutral,,0,,4632,control,5000,246,audio/246_CN15.wav,,292740,,76,audio-slider-response,15,
586,list1,,,,,,0.0-6.0-1.35,,,,,,,,,,,293241,,77,html-keyboard-response,,
586,list1,,,,,,0.0-6.0-0.36,neutral,,8252,,4056,control,5000,340,audio/340_CN3.wav,,297302,,78,audio-slider-response,3,
586,list1,,,,,,0.0-6.0-1.36,,,,,,,,,,,297813,,79,html-keyboard-response,,
586,list1,,,,,,0.0-6.0-0.37,neutral,,8764,,3299,control,5000,723,audio/723_CN17.wav,,301117,,80,audio-slider-response,17,
586,list1,,,,,,0.0-6.0-1.37,,,,,,,,,,,301621,,81,html-keyboard-response,,
586,list1,,,,,,0.0-6.0-0.38,neutral,,8794,,4139,low,5000,340,audio/340_SN13_low.wav,,305745,,82,audio-slider-response,13,
586,list1,,,,,,0.0-6.0-1.38,,,,,,,,,,,306246,,83,html-keyboard-response,,
586,list1,,,,,,0.0-6.0-0.39,neutral,,0,,3491,mid,5000,246,audio/246_SN17_mid.wav,,309733,,84,audio-slider-response,17,
586,list1,,,,,,0.0-6.0-1.39,,,,,,,,,,,310234,,85,html-keyboard-response,,
586,list1,,,,,,0.0-6.0-0.40,neutral,,8914,,5376,control,5000,723,audio/723_CN2.wav,,315622,,86,audio-slider-response,2,
586,list1,,,,,,0.0-6.0-1.40,,,,,,,,,,,316127,,87,html-keyboard-response,,
586,list1,,,,,,0.0-6.0-0.41,neutral,,7696,,3443,control,5000,723,audio/723_CN15.wav,,319578,,88,audio-slider-response,15,
586,list1,,,,,,0.0-6.0-1.41,,,,,,,,,,,320091,,89,html-keyboard-response,,
586,list1,,,,,,0.0-6.0-0.42,neutral,,7892,,3264,control,5000,723,audio/723_CN9.wav,,323359,,90,audio-slider-response,9,
586,list1,,,,,,0.0-6.0-1.42,,,,,,,,,,,323864,,91,html-keyboard-response,,
586,list1,,,,,,0.0-6.0-0.43,neutral,,0,,3925,low,5000,246,audio/246_SN8_low.wav,,327797,,92,audio-slider-response,8,
586,list1,,,,,,0.0-6.0-1.43,,,,,,,,,,,328299,,93,html-keyboard-response,,
586,list1,,,,,,0.0-6.0-0.44,neutral,,0,,4475,mid,5000,246,audio/246_SN10_mid.wav,,332774,,94,audio-slider-response,10,
586,list1,,,,,,0.0-6.0-1.44,,,,,,,,,,,333283,,95,html-keyboard-response,,
586,list1,,,,,,0.0-6.0-0.45,neutral,,8132,,3755,control,5000,723,audio/723_CN16.wav,,337046,,96,audio-slider-response,16,
586,list1,,,,,,0.0-6.0-1.45,,,,,,,,,,,337547,,97,html-keyboard-response,,
586,list1,,,,,,0.0-6.0-0.46,neutral,,9576,,4381,control,5000,340,audio/340_CN14.wav,,341923,,98,audio-slider-response,14,
586,list1,,,,,,0.0-6.0-1.46,,,,,,,,,,,342424,,99,html-keyboard-response,,
586,list1,,,,,,0.0-6.0-0.47,neutral,,0,,3888,control,5000,246,audio/246_CN16.wav,,346322,,100,audio-slider-response,16,
586,list1,,,,,,0.0-6.0-1.47,,,,,,,,,,,346828,,101,html-keyboard-response,,
586,list1,,,,,,0.0-6.0-0.48,neutral,,9621,,4235,low,5000,723,audio/723_SN13_low.wav,,351065,,102,audio-slider-response,13,
586,list1,,,,,,0.0-6.0-1.48,,,,,,,,,,,351577,,103,html-keyboard-response,,
586,list1,,,,,,0.0-6.0-0.49,neutral,,25,,4091,control,5000,246,audio/246_CN18.wav,,355665,,104,audio-slider-response,18,
586,list1,,,,,,0.0-6.0-1.49,,,,,,,,,,,356179,,105,html-keyboard-response,,
586,list1,,,,,,0.0-6.0-0.50,neutral,,7726,,3685,control,5000,340,audio/340_CN19.wav,,359859,,106,audio-slider-response,19,
586,list1,,,,,,0.0-6.0-1.50,,,,,,,,,,,360362,,107,html-keyboard-response,,
586,list1,,,,,,0.0-6.0-0.51,neutral,,8222,,5064,low,5000,723,audio/723_SN7_low.wav,,365422,,108,audio-slider-response,7,
586,list1,,,,,,0.0-6.0-1.51,,,,,,,,,,,365936,,109,html-keyboard-response,,
586,list1,,,,,,0.0-6.0-0.52,neutral,,0,,3491,high,5000,246,audio/246_SN15_high.wav,,369422,,110,audio-slider-response,15,
586,list1,,,,,,0.0-6.0-1.52,,,,,,,,,,,369927,,111,html-keyboard-response,,
586,list1,,,,,,0.0-6.0-0.53,neutral,,7230,,4608,mid,5000,340,audio/340_SN16_mid.wav,,374533,,112,audio-slider-response,16,
586,list1,,,,,,0.0-6.0-1.53,,,,,,,,,,,375045,,113,html-keyboard-response,,
586,list1,,,,,,0.0-6.0-0.54,neutral,,9290,,3683,low,5000,340,audio/340_SN7_low.wav,,378737,,114,audio-slider-response,7,
586,list1,,,,,,0.0-6.0-1.54,,,,,,,,,,,379243,,115,html-keyboard-response,,
586,list1,,,,,,0.0-6.0-0.55,neutral,,8794,,4979,mid,5000,723,audio/723_SN21_mid.wav,,384232,,116,audio-slider-response,21,
586,list1,,,,,,0.0-6.0-1.55,,,,,,,,,,,384744,,117,html-keyboard-response,,
586,list1,,,,,,0.0-6.0-0.56,neutral,,6824,,3683,control,5000,723,audio/723_CN20.wav,,388437,,118,audio-slider-response,20,
586,list1,,,,,,0.0-6.0-1.56,,,,,,,,,,,388946,,119,html-keyboard-response,,
586,list1,,,,,,0.0-6.0-0.57,neutral,,7185,,4691,control,5000,723,audio/723_CN4.wav,,393635,,120,audio-slider-response,4,
586,list1,,,,,,0.0-6.0-1.57,,,,,,,,,,,394137,,121,html-keyboard-response,,
586,list1,,,,,,0.0-6.0-0.58,neutral,,9576,,4272,control,5000,340,audio/340_CN17.wav,,398406,,122,audio-slider-response,17,
586,list1,,,,,,0.0-6.0-1.58,,,,,,,,,,,398910,,123,html-keyboard-response,,
586,list1,,,,,,0.0-6.0-0.59,neutral,,8553,,4403,control,5000,723,audio/723_CN13.wav,,403316,,124,audio-slider-response,13,
586,list1,,,,,,0.0-6.0-1.59,,,,,,,,,,,403825,,125,html-keyboard-response,,
586,list1,,,,,,0.0-6.0-0.60,neutral,,8027,,5747,low,5000,340,audio/340_SN14_low.wav,,409578,,126,audio-slider-response,14,
586,list1,,,,,,0.0-6.0-1.60,,,,,,,,,,,410091,,127,html-keyboard-response,,
586,list1,,,,,,0.0-6.0-0.61,neutral,,3079,,5520,high,5000,340,audio/340_SN20_high.wav,,415616,,128,audio-slider-response,20,
586,list1,,,,,,0.0-6.0-1.61,,,,,,,,,,,416121,,129,html-keyboard-response,,
586,list1,,,,,,0.0-6.0-0.62,neutral,,0,,3624,mid,5000,246,audio/246_SN4_mid.wav,,419741,,130,audio-slider-response,4,
586,list1,,,,,,0.0-6.0-1.62,,,,,,,,,,,420259,,131,html-keyboard-response,,
586,list1,,,,,,0.0-6.0-0.63,neutral,,8403,,5869,control,5000,723,audio/723_CN5.wav,,426125,,132,audio-slider-response,5,
586,list1,,,,,,0.0-6.0-1.63,,,,,,,,,,,426627,,133,html-keyboard-response,,
586,list1,,,,,,0.0-6.0-0.64,neutral,,2958,,3768,high,5000,723,audio/723_SN9_high.wav,,430399,,134,audio-slider-response,9,
586,list1,,,,,,0.0-6.0-1.64,,,,,,,,,,,430906,,135,html-keyboard-response,,
586,list1,,,,,,0.0-6.0-0.65,neutral,,0,,3720,control,5000,246,audio/246_CN10.wav,,434639,,136,audio-slider-response,10,
586,list1,,,,,,0.0-6.0-1.65,,,,,,,,,,,435141,,137,html-keyboard-response,,
586,list1,,,,,,0.0-6.0-0.66,neutral,,0,,3659,high,5000,246,audio/246_SN20_high.wav,,438806,,138,audio-slider-response,20,
586,list1,,,,,,0.0-6.0-1.66,,,,,,,,,,,439313,,139,html-keyboard-response,,
586,list1,,,,,,0.0-6.0-0.67,neutral,,6583,,5389,mid,5000,723,audio/723_SN4_mid.wav,,444696,,140,audio-slider-response,4,
586,list1,,,,,,0.0-6.0-1.67,,,,,,,,,,,445200,,141,html-keyboard-response,,
586,list1,,,,,,0.0-6.0-0.68,neutral,,7576,,4440,mid,5000,723,audio/723_SN17_mid.wav,,449622,,142,audio-slider-response,17,
586,list1,,,,,,0.0-6.0-1.68,,,,,,,,,,,450123,,143,html-keyboard-response,,
586,list1,,,,,,0.0-6.0-0.69,neutral,,9546,,5040,low,5000,723,audio/723_SN8_low.wav,,455168,,144,audio-slider-response,8,
586,list1,,,,,,0.0-6.0-1.69,,,,,,,,,,,455673,,145,html-keyboard-response,,
586,list1,,,,,,0.0-6.0-0.70,neutral,,5650,,4632,control,5000,723,audio/723_CN3.wav,,460318,,146,audio-slider-response,3,
586,list1,,,,,,0.0-6.0-1.70,,,,,,,,,,,460821,,147,html-keyboard-response,,
586,list1,,,,,,0.0-6.0-0.71,neutral,,6267,,5627,high,5000,340,audio/340_SN19_high.wav,,466459,,148,audio-slider-response,19,
586,list1,,,,,,0.0-6.0-1.71,,,,,,,,,,,466961,,149,html-keyboard-response,,
586,list1,,,,,,0.0-6.0-0.72,neutral,,9711,,4080,control,5000,340,audio/340_CN21.wav,,471041,,150,audio-slider-response,21,
586,list1,,,,,,0.0-6.0-1.72,,,,,,,,,,,471554,,151,html-keyboard-response,,
586,list1,,,,,,0.0-6.0-0.73,neutral,,2296,,5555,high,5000,340,audio/340_SN15_high.wav,,477104,,152,audio-slider-response,15,
586,list1,,,,,,0.0-6.0-1.73,,,,,,,,,,,477618,,153,html-keyboard-response,,
586,list1,,,,,,0.0-6.0-0.74,neutral,,0,,3613,mid,5000,246,audio/246_SN16_mid.wav,,481226,,154,audio-slider-response,16,
586,list1,,,,,,0.0-6.0-1.74,,,,,,,,,,,481733,,155,html-keyboard-response,,
586,list1,,,,,,0.0-6.0-0.75,neutral,,6869,,3456,control,5000,340,audio/340_CN13.wav,,485191,,156,audio-slider-response,13,
586,list1,,,,,,0.0-6.0-1.75,,,,,,,,,,,485707,,157,html-keyboard-response,,
586,list1,,,,,,0.0-6.0-0.76,neutral,,8177,,4584,low,5000,340,audio/340_SN8_low.wav,,490286,,158,audio-slider-response,8,
586,list1,,,,,,0.0-6.0-1.76,,,,,,,,,,,490788,,159,html-keyboard-response,,
586,list1,,,,,,0.0-6.0-0.77,neutral,,8764,,4069,control,5000,340,audio/340_CN1.wav,,494854,,160,audio-slider-response,1,
586,list1,,,,,,0.0-6.0-1.77,,,,,,,,,,,495358,,161,html-keyboard-response,,
586,list1,,,,,,0.0-6.0-0.78,neutral,,0,,4080,high,5000,246,audio/246_SN18_high.wav,,499424,,162,audio-slider-response,18,
586,list1,,,,,,0.0-6.0-1.78,,,,,,,,,,,499940,,163,html-keyboard-response,,
586,list1,,,,,,0.0-6.0-0.79,neutral,,0,,3192,control,5000,246,audio/246_CN3.wav,,503126,,164,audio-slider-response,3,
586,list1,,,,,,0.0-6.0-1.79,,,,,,,,,,,503634,,165,html-keyboard-response,,
586,list1,,,,,,0.0-6.0-0.80,neutral,,9636,,5016,control,5000,723,audio/723_CN21.wav,,508650,,166,audio-slider-response,21,
586,list1,,,,,,0.0-6.0-1.80,,,,,,,,,,,509150,,167,html-keyboard-response,,
586,list1,,,,,,0.0-6.0-0.81,neutral,,8523,,3949,low,5000,340,audio/340_SN3_low.wav,,513093,,168,audio-slider-response,3,
586,list1,,,,,,0.0-6.0-1.81,,,,,,,,,,,513604,,169,html-keyboard-response,,
586,list1,,,,,,0.0-6.0-0.82,neutral,,6267,,4211,mid,5000,340,audio/340_SN17_mid.wav,,517818,,170,audio-slider-response,17,
586,list1,,,,,,0.0-6.0-1.82,,,,,,,,,,,518324,,171,html-keyboard-response,,
586,list1,,,,,,0.0-6.0-0.83,neutral,,0,,3672,control,5000,246,audio/246_CN20.wav,,522004,,172,audio-slider-response,20,
586,list1,,,,,,0.0-6.0-1.83,,,,,,,,,,,522510,,173,html-keyboard-response,,
586,list1,,,,,,0.0-6.0-0.84,neutral,,9501,,4560,control,5000,340,audio/340_CN18.wav,,527064,,174,audio-slider-response,18,
586,list1,,,,,,0.0-6.0-1.84,,,,,,,,,,,527576,,175,html-keyboard-response,,
586,list1,,,,,,0.0-6.0-0.85,neutral,,9651,,4272,control,5000,340,audio/340_CN10.wav,,531846,,176,audio-slider-response,10,
586,list1,,,,,,0.0-6.0-1.85,,,,,,,,,,,532352,,177,html-keyboard-response,,
586,list1,,,,,,0.0-6.0-0.86,neutral,,0,,3925,control,5000,246,audio/246_CN9.wav,,536286,,178,audio-slider-response,9,
586,list1,,,,,,0.0-6.0-1.86,,,,,,,,,,,536787,,179,html-keyboard-response,,
586,list1,,,,,,0.0-6.0-0.87,neutral,,0,,3264,low,5000,246,audio/246_SN3_low.wav,,540052,,180,audio-slider-response,3,
586,list1,,,,,,0.0-6.0-1.87,,,,,,,,,,,540553,,181,html-keyboard-response,,
586,list1,,,,,,0.0-6.0-0.88,neutral,,8072,,4595,control,5000,340,audio/340_CN7.wav,,545154,,182,audio-slider-response,7,
586,list1,,,,,,0.0-6.0-1.88,,,,,,,,,,,545658,,183,html-keyboard-response,,
586,list1,,,,,,0.0-6.0-0.89,neutral,,0,,3373,control,5000,246,audio/246_CN14.wav,,549024,,184,audio-slider-response,14,
586,list1,,,,,,0.0-6.0-1.89,,,,,,,,,,,549526,,185,html-keyboard-response,,
586,list1,,,,,,0.0-6.0-0.90,neutral,,0,,3923,low,5000,246,audio/246_SN7_low.wav,,553460,,186,audio-slider-response,7,
586,list1,,,,,,0.0-6.0-1.90,,,,,,,,,,,553968,,187,html-keyboard-response,,
586,list1,,,,,,0.0-6.0-0.91,neutral,,8162,,4896,low,5000,723,audio/723_SN14_low.wav,,558866,,188,audio-slider-response,14,
586,list1,,,,,,0.0-6.0-1.91,,,,,,,,,,,559367,,189,html-keyboard-response,,
586,list1,,,,,,0.0-6.0-0.92,neutral,,8598,,3299,control,5000,340,audio/340_CN15.wav,,562676,,190,audio-slider-response,15,
586,list1,,,,,,0.0-6.0-1.92,,,,,,,,,,,563182,,191,html-keyboard-response,,
586,list1,,,,,,0.0-6.0-0.93,neutral,,9606,,4643,control,5000,723,audio/723_CN18.wav,,567834,,192,audio-slider-response,18,
586,list1,,,,,,0.0-6.0-1.93,,,,,,,,,,,568338,,193,html-keyboard-response,,
586,list1,,,,,,0.0-6.0-0.94,neutral,,0,,3552,control,5000,246,audio/246_CN1.wav,,571888,,194,audio-slider-response,1,
586,list1,,,,,,0.0-6.0-1.94,,,,,,,,,,,572399,,195,html-keyboard-response,,
586,list1,,,,,,0.0-6.0-0.95,neutral,,7124,,4021,mid,5000,723,audio/723_SN2_mid.wav,,576405,,196,audio-slider-response,2,
586,list1,,,,,,0.0-6.0-1.95,,,,,,,,,,,576914,,197,html-keyboard-response,,
586,list1,,,,,,0.0-6.0-0.96,neutral,,8553,,7368,mid,5000,723,audio/723_SN10_mid.wav,,584283,,198,audio-slider-response,10,
586,list1,,,,,,0.0-6.0-1.96,,,,,,,,,,,584797,,199,html-keyboard-response,,
586,list1,,,,,,0.0-6.0-0.97,neutral,,0,,3541,low,5000,246,audio/246_SN14_low.wav,,588333,,200,audio-slider-response,14,
586,list1,,,,,,0.0-6.0-1.97,,,,,,,,,,,588836,,201,html-keyboard-response,,
586,list1,,,,,,0.0-6.0-0.98,neutral,,6824,,6000,high,5000,340,audio/340_SN5_high.wav,,594829,,202,audio-slider-response,5,
586,list1,,,,,,0.0-6.0-1.98,,,,,,,,,,,595330,,203,html-keyboard-response,,
586,list1,,,,,,0.0-6.0-0.99,neutral,,0,,3203,control,5000,246,audio/246_CN19.wav,,598524,,204,audio-slider-response,19,
586,list1,,,,,,0.0-6.0-1.99,,,,,,,,,,,599030,,205,html-keyboard-response,,
586,list1,,,,,,0.0-6.0-0.100,neutral,,6177,,6144,control,5000,723,audio/723_CN10.wav,,605167,,206,audio-slider-response,10,
586,list1,,,,,,0.0-6.0-1.100,,,,,,,,,,,605683,,207,html-keyboard-response,,
586,list1,,,,,,0.0-6.0-0.101,neutral,,7816,,5136,control,5000,723,audio/723_CN1.wav,,610826,,208,audio-slider-response,1,
586,list1,,,,,,0.0-6.0-1.101,,,,,,,,,,,611336,,209,html-keyboard-response,,
586,list1,,,,,,0.0-6.0-0.102,neutral,,8222,,8856,mid,5000,723,audio/723_SN16_mid.wav,,620188,,210,audio-slider-response,16,
586,list1,,,,,,0.0-6.0-1.102,,,,,,,,,,,620703,,211,html-keyboard-response,,
586,list1,,,,,,0.0-6.0-0.103,neutral,,8057,,3589,control,5000,340,audio/340_CN5.wav,,624295,,212,audio-slider-response,5,
586,list1,,,,,,0.0-6.0-1.103,,,,,,,,,,,624807,,213,html-keyboard-response,,
586,list1,,,,,,0.0-6.0-0.104,neutral,,0,,4320,high,5000,246,audio/246_SN9_high.wav,,629133,,214,audio-slider-response,9,
586,list1,,,,,,0.0-6.0-1.104,,,,,,,,,,,629639,,215,html-keyboard-response,,
586,list1,,,,,,0.0-6.0-0.105,neutral,,5906,,4427,mid,5000,340,audio/340_SN21_mid.wav,,634059,,216,audio-slider-response,21,
586,list1,,,,,,0.0-6.0-1.105,,,,,,,,,,,634562,,217,html-keyboard-response,,
586,list1,,,,,,0.0-6.0-0.106,neutral,,6703,,4595,high,5000,723,audio/723_SN5_high.wav,,639149,,218,audio-slider-response,5,
586,list1,,,,,,0.0-6.0-1.106,,,,,,,,,,,639655,,219,html-keyboard-response,,
586,list1,,,,,,0.0-6.0-0.107,neutral,,7500,,4608,control,5000,723,audio/723_CN7.wav,,644262,,220,audio-slider-response,7,
586,list1,,,,,,0.0-6.0-1.107,,,,,,,,,,,644770,,221,html-keyboard-response,,
586,list1,,,,,,0.0-7.0,,,0,,23379,,,,"<p><font size='3'>You have completed the listening trials. You will now complete a short questionnaire. During the questionnaire, you will see a series of statements alongside a scale. Click along the scale to indicate how much you agree or disagree with the statement. Upon completion of the questionnaire, you will be asked to fill out an optional demographic survey. <br><br>When you're ready to begin the questionnaire, click ‘Continue’.</font></p>",,668155,,222,html-button-response,,
586,list1,,POSITIVE,,,,0.0-8.0-0.0,,,10000,,9469,,5000,,Some types of work are just not appropriate for women.<br><br>,,677628,,223,html-slider-response,,
586,list1,,NEGATIVE,,,,0.0-8.0-0.1,,,8598,,8968,,5000,,People should be treated the same regardless of their sex.<br><br>,,686598,,224,html-slider-response,,
586,list1,,POSITIVE,,,,0.0-8.0-0.2,,,1544,,7067,,5000,,Mothers should work only if necessary.<br><br>,,693667,,225,html-slider-response,,
586,list1,,POSITIVE,,,,0.0-8.0-0.3,,,10000,,6038,,5000,,"For many important jobs, it is better to choose men instead of women.<br><br>",,699707,,226,html-slider-response,,
586,list1,,POSITIVE,,,,0.0-8.0-0.4,,,7591,,7863,,5000,,Girls should be protected and watched over more than boys.<br><br>,,707572,,227,html-slider-response,,
586,list1,,NEGATIVE,,,,0.0-8.0-0.5,,,10000,,9066,,5000,,People can be both aggressive and nurturing regardless of sex.<br><br>,,716639,,228,html-slider-response,,
586,list1,,POSITIVE,,,,0.0-8.0-0.6,,,5000,,7281,,5000,,Mothers should make most decisions about how children are brought up.<br><br>,,723922,,229,html-slider-response,,
586,list1,,NEGATIVE,,,,0.0-8.0-0.7,,,10000,,6692,,5000,,Tasks around the house should not be assigned by sex.<br><br>,,730614,,230,html-slider-response,,
586,list1,,POSITIVE,,,,0.0-8.0-0.8,,,9005,,8587,,5000,,Men are more sexual than women.<br><br>,,739201,,231,html-slider-response,,
586,list1,,POSITIVE,,,,0.0-8.0-0.9,,,10000,,7185,,5000,,Only some types of work are appropriate for both men and women.<br><br>,,746387,,232,html-slider-response,,
586,list1,,NEGATIVE,,,,0.0-8.0-0.10,,,8313,,17005,,5000,,The freedom that children are given should be determined by their age and maturity level and not by their sex.<br><br>,,763393,,233,html-slider-response,,
586,list1,,NEGATIVE,,,,0.0-8.0-0.11,,,0,,7198,,5000,,We should stop thinking about whether people are male or female and focus on other characteristics.<br><br>,,770592,,234,html-slider-response,,
586,list1,,POSITIVE,,,,0.0-8.0-0.12,,,10000,,7008,,5000,,A father’s major responsibility is to provide financially for his children.<br><br>,,777602,,235,html-slider-response,,
586,list1,,,,,,0.0-9.0,,,0,,12812,,,,"<p><font size='3'>You have completed the questionnaire. There will now be an optional survey. Please answer the following questions if you feel comfortable doing so. If you do not wish to answer a question, please leave it blank. <br><br>When you're ready to procede, click ‘Continue’.</font></p>",,790414,,236,html-button-response,,
586,list1,,,,,,0.0-10.0,,[0],{'Q0': 3},,24391,,,,,,814808,,237,survey-likert,,
586,list1,[],,,,,0.0-11.0,,,"{'age': '55', 'P0_Q0': None, 'enjoy': 'Better than the average experiment', 'gender': 'Male', 'region': 'Southwest - AZ, NM, OK, TX', 'correct': 'Yes', 'payment': 'The payment was fair', 'comments': 'Thank you!', 'language': '', 'education': 'Graduated high school'}",,90743,,,,,,905605,,238,survey,,
586,list1,,,,,,0.0-12.0,,,0,,3285,,,,Thank you for your time! Please click 'Finish' and then wait a moment until you're directed back to Prolific.<br><br>,,908892,,239,html-button-response,,
571,list1,,,[],[],[],0.0-0.0,,,,,,,,,,True,952,False,0,preload,,
571,list1,,,,,,0.0-1.0,,,0,,20060,,,,"<p><font size='3'>DESCRIPTION: You are invited to participate in a research study. Its general purpose is to understand how people perceive speech. We are interested in how people make use of varying properties of language to infer social information about a speaker. In this study, you will hear spoken sentences, and you will be asked to make simple decisions about the sentences you hear. Following this, you will be asked to complete a short questionnaire, where you will indicate on a sliding scale how much you agree or disagree with a series of statements. You will also be asked to complete an optional demographic survey. <br><br>TIME INVOLVEMENT: Your participation will take approximately 10 to 20 minutes. <br><br>RISKS AND BENEFITS: The foreseeable risks associated with this study are minimal. This judgment is based on a large body of experience with the same or similar procedures with people of similar ages, sex, origins, etc. Study data will be stored securely, in compliance with Stanford University standards, minimizing the risk of confidentiality breach. There are no known benefits to you for participating in this study, and we cannot and do not guarantee or promise that you will receive any benefits from this study. You will help us to understand how people perceive spoken language. <br><br>PAYMENT: You will be paid at the posted rate. <br><br>PARTICIPANT RIGHTS: If you have read this form and have decided to participate in this project, please understand your participation is voluntary and you have the right to withdraw your consent or discontinue participation at any time without penalty or loss of benefits to which you are otherwise entitled. The alternative is not to participate. You have the right to refuse to answer particular questions. The results of this research study may be presented at scientific or professional meetings or published in scientific journals. Your individual privacy will be maintained in all published and written data resulting from the study. In accordance with scientific norms, the data from this study may be used or shared with other researchers for future research (after removing personally identifying information) without additional consent from you. <br><br>CONTACT INFORMATION: If you have any questions, concerns or complaints about this research study, its procedures, risks and benefits, you should contact the Protocol Director Grace Brown at (616) 498-8188. If you are not satisfied with how this study is being conducted, or if you have any concerns, complaints, or general questions about the research or your rights as a participant, please contact the Stanford Institutional Review Board (IRB) to speak to someone independent of the research team at (650) 723-2480 or toll free at 1-866-680-2906. You can also write to the Stanford IRB, Stanford University, 3000 El Camino Real, Five Palo Alto Square, 4th Floor, Palo Alto, CA 94306 USA. <br><br>WAIVER OF DOCUMENTATION: If you agree to participate in this research, please click the 'Continue' button. </font></p>",,21014,,1,html-button-response,,
571,list1,,,,,,0.0-2.0,,,0,,3911,,,,"<p><font size='3'>This study requires you to listen to audio clips. To ensure you can adequately hear the audio presented in this study, the next page will have an audio attention check. Please wear headphones, and be prepared to adjust the volume on your device if necessary. <br><br> When you are ready to begin the audio attention check, click 'Start'. </font></p>",,24927,,2,html-button-response,,
571,list1,,,,,,0.0-3.0,,,2,correct,5269,,,,audio/gift.wav,,30272,,3,audio-button-response,,
571,list1,,,,,,0.0-4.0,,,0,,1098,,,,<p>Correct! You are ready to begin the study.</p>,,31372,,4,html-button-response,,
571,list1,,,,,,0.0-5.0,,,0,,5132,,,,"<p><font size='3'>In this experiment, you will listen to a series of sentences, produced by different speakers. While listening to each sentence, you will be prompted to rate the social characteristics of its speaker. To rate the social characteristics of a speaker, click along the scale that appears on your screen. You may click along this scale after the speaker stops talking. Try to respond as quickly as you can. If you do not respond within ten seconds, the experiment will advance automatically. There will be a progress bar at the top of the screen. When you're ready to hear the first speaker, click ‘Start’. </font></p>",,36506,,5,html-button-response,,
571,list1,,,,,,0.0-6.0-0.0,neutral,,,,,mid,5000,723,audio/723_SN2_mid.wav,,46510,,6,audio-slider-response,2,
571,list1,,,,,,0.0-6.0-1.0,,,,,,,,,,,47013,,7,html-keyboard-response,,
571,list1,,,,,,0.0-6.0-0.1,neutral,,5434,,8208,control,5000,723,audio/723_CN17.wav,,55223,,8,audio-slider-response,17,
571,list1,,,,,,0.0-6.0-1.1,,,,,,,,,,,55726,,9,html-keyboard-response,,
571,list1,,,,,,0.0-6.0-0.2,neutral,,5177,,8208,control,5000,723,audio/723_CN18.wav,,63934,,10,audio-slider-response,18,
571,list1,,,,,,0.0-6.0-1.2,,,,,,,,,,,64436,,11,html-keyboard-response,,
571,list1,,,,,,0.0-6.0-0.3,neutral,,1254,,5104,control,5000,246,audio/246_CN5.wav,,69547,,12,audio-slider-response,5,
571,list1,,,,,,0.0-6.0-1.3,,,,,,,,,,,70051,,13,html-keyboard-response,,
571,list1,,,,,,0.0-6.0-0.4,neutral,,2144,,2853,low,5000,246,audio/246_SN1_low.wav,,72907,,14,audio-slider-response,1,
571,list1,,,,,,0.0-6.0-1.4,,,,,,,,,,,73410,,15,html-keyboard-response,,
571,list1,,,,,,0.0-6.0-0.5,neutral,,2716,,3456,control,5000,246,audio/246_CN8.wav,,76866,,16,audio-slider-response,8,
571,list1,,,,,,0.0-6.0-1.5,,,,,,,,,,,77369,,17,html-keyboard-response,,
571,list1,,,,,,0.0-6.0-0.6,neutral,,7909,,3845,low,5000,723,audio/723_SN13_low.wav,,81213,,18,audio-slider-response,13,
571,list1,,,,,,0.0-6.0-1.6,,,,,,,,,,,81715,,19,html-keyboard-response,,
571,list1,,,,,,0.0-6.0-0.7,neutral,,49,,3211,high,5000,246,audio/246_SN9_high.wav,,84926,,20,audio-slider-response,9,
571,list1,,,,,,0.0-6.0-1.7,,,,,,,,,,,85429,,21,html-keyboard-response,,
571,list1,,,,,,0.0-6.0-0.8,neutral,,,,,control,5000,723,audio/723_CN5.wav,,95434,,22,audio-slider-response,5,
571,list1,,,,,,0.0-6.0-1.8,,,,,,,,,,,95937,,23,html-keyboard-response,,
571,list1,,,,,,0.0-6.0-0.9,neutral,,,,,low,5000,723,audio/723_SN1_low.wav,,105942,,24,audio-slider-response,1,
571,list1,,,,,,0.0-6.0-1.9,,,,,,,,,,,106449,,25,html-keyboard-response,,
571,list1,,,,,,0.0-6.0-0.10,neutral,,,,,high,5000,340,audio/340_SN5_high.wav,,116453,,26,audio-slider-response,5,
571,list1,,,,,,0.0-6.0-1.10,,,,,,,,,,,116956,,27,html-keyboard-response,,
571,list1,,,,,,0.0-6.0-0.11,neutral,,1395,,3920,control,5000,246,audio/246_CN9.wav,,120881,,28,audio-slider-response,9,
571,list1,,,,,,0.0-6.0-1.11,,,,,,,,,,,121384,,29,html-keyboard-response,,
571,list1,,,,,,0.0-6.0-0.12,neutral,,,,,control,5000,340,audio/340_CN10.wav,,131389,,30,audio-slider-response,10,
571,list1,,,,,,0.0-6.0-1.12,,,,,,,,,,,131893,,31,html-keyboard-response,,
571,list1,,,,,,0.0-6.0-0.13,neutral,,,,,control,5000,340,audio/340_CN1.wav,,141898,,32,audio-slider-response,1,
571,list1,,,,,,0.0-6.0-1.13,,,,,,,,,,,142400,,33,html-keyboard-response,,
571,list1,,,,,,0.0-6.0-0.14,neutral,,,,,control,5000,246,audio/246_CN4.wav,,152408,,34,audio-slider-response,4,
571,list1,,,,,,0.0-6.0-1.14,,,,,,,,,,,152914,,35,html-keyboard-response,,
571,list1,,,,,,0.0-6.0-0.15,neutral,,,,,mid,5000,246,audio/246_SN16_mid.wav,,162920,,36,audio-slider-response,16,
571,list1,,,,,,0.0-6.0-1.15,,,,,,,,,,,163424,,37,html-keyboard-response,,
571,list1,,,,,,0.0-6.0-0.16,neutral,,,,,control,5000,723,audio/723_CN4.wav,,173430,,38,audio-slider-response,4,
571,list1,,,,,,0.0-6.0-1.16,,,,,,,,,,,173937,,39,html-keyboard-response,,
571,list1,,,,,,0.0-6.0-0.17,neutral,,,,,low,5000,246,audio/246_SN14_low.wav,,183945,,40,audio-slider-response,14,
571,list1,,,,,,0.0-6.0-1.17,,,,,,,,,,,184451,,41,html-keyboard-response,,
571,list1,,,,,,0.0-6.0-0.18,neutral,,,,,control,5000,723,audio/723_CN2.wav,,194459,,42,audio-slider-response,2,
571,list1,,,,,,0.0-6.0-1.18,,,,,,,,,,,194965,,43,html-keyboard-response,,
571,list1,,,,,,0.0-6.0-0.19,neutral,,,,,control,5000,246,audio/246_CN14.wav,,204968,,44,audio-slider-response,14,
571,list1,,,,,,0.0-6.0-1.19,,,,,,,,,,,205470,,45,html-keyboard-response,,
571,list1,,,,,,0.0-6.0-0.20,neutral,,,,,mid,5000,723,audio/723_SN16_mid.wav,,215474,,46,audio-slider-response,16,
571,list1,,,,,,0.0-6.0-1.20,,,,,,,,,,,215978,,47,html-keyboard-response,,
571,list1,,,,,,0.0-6.0-0.21,neutral,,,,,control,5000,246,audio/246_CN2.wav,,225981,,48,audio-slider-response,2,
571,list1,,,,,,0.0-6.0-1.21,,,,,,,,,,,226490,,49,html-keyboard-response,,
571,list1,,,,,,0.0-6.0-0.22,neutral,,,,,high,5000,340,audio/340_SN20_high.wav,,236495,,50,audio-slider-response,20,
571,list1,,,,,,0.0-6.0-1.22,,,,,,,,,,,236997,,51,html-keyboard-response,,
571,list1,,,,,,0.0-6.0-0.23,neutral,,,,,mid,5000,246,audio/246_SN2_mid.wav,,247000,,52,audio-slider-response,2,
571,list1,,,,,,0.0-6.0-1.23,,,,,,,,,,,247504,,53,html-keyboard-response,,
571,list1,,,,,,0.0-6.0-0.24,neutral,,,,,high,5000,246,audio/246_SN20_high.wav,,257508,,54,audio-slider-response,20,
571,list1,,,,,,0.0-6.0-1.24,,,,,,,,,,,258009,,55,html-keyboard-response,,
571,list1,,,,,,0.0-6.0-0.25,neutral,,,,,control,5000,723,audio/723_CN9.wav,,268014,,56,audio-slider-response,9,
571,list1,,,,,,0.0-6.0-1.25,,,,,,,,,,,268519,,57,html-keyboard-response,,
571,list1,,,,,,0.0-6.0-0.26,neutral,,,,,control,5000,723,audio/723_CN15.wav,,278524,,58,audio-slider-response,15,
571,list1,,,,,,0.0-6.0-1.26,,,,,,,,,,,279029,,59,html-keyboard-response,,
571,list1,,,,,,0.0-6.0-0.27,neutral,,,,,high,5000,246,audio/246_SN5_high.wav,,289036,,60,audio-slider-response,5,
571,list1,,,,,,0.0-6.0-1.27,,,,,,,,,,,289538,,61,html-keyboard-response,,
571,list1,,,,,,0.0-6.0-0.28,neutral,,,,,control,5000,340,audio/340_CN3.wav,,299541,,62,audio-slider-response,3,
571,list1,,,,,,0.0-6.0-1.28,,,,,,,,,,,300044,,63,html-keyboard-response,,
571,list1,,,,,,0.0-6.0-0.29,neutral,,,,,low,5000,340,audio/340_SN13_low.wav,,310048,,64,audio-slider-response,13,
571,list1,,,,,,0.0-6.0-1.29,,,,,,,,,,,310552,,65,html-keyboard-response,,
571,list1,,,,,,0.0-6.0-0.30,neutral,,,,,mid,5000,340,audio/340_SN16_mid.wav,,320556,,66,audio-slider-response,16,
571,list1,,,,,,0.0-6.0-1.30,,,,,,,,,,,321058,,67,html-keyboard-response,,
571,list1,,,,,,0.0-6.0-0.31,neutral,,,,,mid,5000,340,audio/340_SN10_mid.wav,,331062,,68,audio-slider-response,10,
571,list1,,,,,,0.0-6.0-1.31,,,,,,,,,,,331567,,69,html-keyboard-response,,
571,list1,,,,,,0.0-6.0-0.32,neutral,,,,,mid,5000,340,audio/340_SN21_mid.wav,,341569,,70,audio-slider-response,21,
